TrialNum,Word,WordCategory,FishType,WordList,WordValence,WordReputation,CorrectResp,IncorrectResp,FishTypeFile,Round,WordType,Condition,distractor,target,set,ans1,ans2,weather_thisRepN,weather_thisTrialN,weather_thisN,weather_thisIndex,wth_repeat_prac_thisRepN,wth_repeat_prac_thisTrialN,wth_repeat_prac_thisN,wth_repeat_prac_thisIndex,wth_trials_thisRepN,wth_trials_thisTrialN,wth_trials_thisN,wth_trials_thisIndex,total_experiment_thisRepN,total_experiment_thisTrialN,total_experiment_thisN,total_experiment_thisIndex,boat_thisRepN,boat_thisTrialN,boat_thisN,boat_thisIndex,para_thisRepN,para_thisTrialN,para_thisN,para_thisIndex,fish_thisRepN,fish_thisTrialN,fish_thisN,fish_thisIndex,fis_temp_thisRepN,fis_temp_thisTrialN,fis_temp_thisN,fis_temp_thisIndex,fis_round_thisRepN,fis_round_thisTrialN,fis_round_thisN,fis_round_thisIndex,fis_trials_thisRepN,fis_trials_thisTrialN,fis_trials_thisN,fis_trials_thisIndex,fis_main_break_thisRepN,fis_main_break_thisTrialN,fis_main_break_thisN,fis_main_break_thisIndex,para_prac_loop_thisRepN,para_prac_loop_thisTrialN,para_prac_loop_thisN,para_prac_loop_thisIndex,para_main_loop_thisRepN,para_main_loop_thisTrialN,para_main_loop_thisN,para_main_loop_thisIndex,flanker_prac_loop_thisRepN,flanker_prac_loop_thisTrialN,flanker_prac_loop_thisN,flanker_prac_loop_thisIndex,flanker_main_loop_thisRepN,flanker_main_loop_thisTrialN,flanker_main_loop_thisN,flanker_main_loop_thisIndex,stimulus_interval,wth_resp,wth_rt,wth_valence_rating_2_response,wth_self_rating_2_response,wth_valence_rating_response,wth_self_rating_response,fis_slider_2_started,Fish_2_started,fis_WordBox_2_started,fis_Words_2_started,fis_slider_2_response,fis_slider_2_rt,Response_2,Feedback_2,fis_BackGround_Feedback_2_started,fis_Feedbacks_2_started,fis_Feedbacks_2_stopped,fis_BackGround_Feedback_2_stopped,fis_slider_started,fis_BackGround_started,Fish_started,fis_WordBox_started,fis_Words_started,fis_slider_response,fis_slider_rt,Response,Feedback,fis_BackGround_Feedback_started,fis_Feedbacks_started,fis_Feedbacks_stopped,fis_BackGround_Feedback_stopped,fis_roundN,main_prac,st_ans,st_res,st_corr,st_rt,st_rt2,st2_resp_keys,st2_resp_corr,fl_cold,fl_colt,fl_set,fl_dcond,fl_tcond,targ_started,fl_ans,fl_res,fl_corr,fl_rt,fl_rt_2,fl_key_resp_keys,id_,x___,x__,weather,boat,parachute,fish,test_mode,date,expName,psychopyVersion,frameRate
NaN,,NaN,,,NaN,NaN,,,,NaN,,,,,NaN,,,0,0,0,0,0,0,0,0,NaN,NaN,NaN,NaN,NaN,NaN,NaN,NaN,NaN,NaN,NaN,NaN,NaN,NaN,NaN,NaN,NaN,NaN,NaN,NaN,NaN,NaN,NaN,NaN,NaN,NaN,NaN,NaN,NaN,NaN,NaN,NaN,NaN,NaN,NaN,NaN,NaN,NaN,NaN,NaN,NaN,NaN,NaN,NaN,NaN,NaN,NaN,NaN,NaN,NaN,NaN,NaN,30,피크닉,6.83770290017128,0.444444444444444,0.660493827160494,NaN,NaN,NaN,NaN,NaN,NaN,NaN,NaN,,,NaN,NaN,NaN,NaN,NaN,NaN,NaN,NaN,NaN,NaN,NaN,,,NaN,NaN,NaN,NaN,NaN,,,,NaN,NaN,NaN,,NaN,NaN,NaN,NaN,NaN,NaN,NaN,NaN+0i,NaN+0i,NaN,NaN,NaN,NaN,11,26,남자,yes,yes,yes,yes,no,2023-04-11_10h28.30.904,Main,2022.2.4,30.0011910388905
NaN,,NaN,,,NaN,NaN,,,,NaN,,,,,NaN,,,0,0,0,0,NaN,NaN,NaN,NaN,0,0,0,0,NaN,NaN,NaN,NaN,NaN,NaN,NaN,NaN,NaN,NaN,NaN,NaN,NaN,NaN,NaN,NaN,NaN,NaN,NaN,NaN,NaN,NaN,NaN,NaN,NaN,NaN,NaN,NaN,NaN,NaN,NaN,NaN,NaN,NaN,NaN,NaN,NaN,NaN,NaN,NaN,NaN,NaN,NaN,NaN,NaN,NaN,NaN,NaN,30,피크닉,5.42916569998488,NaN,NaN,0.436213991769547,0.672839506172839,NaN,NaN,NaN,NaN,NaN,NaN,,,NaN,NaN,NaN,NaN,NaN,NaN,NaN,NaN,NaN,NaN,NaN,,,NaN,NaN,NaN,NaN,NaN,,,,NaN,NaN,NaN,,NaN,NaN,NaN,NaN,NaN,NaN,NaN,NaN+0i,NaN+0i,NaN,NaN,NaN,NaN,11,26,남자,yes,yes,yes,yes,no,2023-04-11_10h28.30.904,Main,2022.2.4,30.0011910388905
NaN,,NaN,,,NaN,NaN,,,,NaN,,,,,NaN,,,0,0,0,0,NaN,NaN,NaN,NaN,1,0,1,0,NaN,NaN,NaN,NaN,NaN,NaN,NaN,NaN,NaN,NaN,NaN,NaN,NaN,NaN,NaN,NaN,NaN,NaN,NaN,NaN,NaN,NaN,NaN,NaN,NaN,NaN,NaN,NaN,NaN,NaN,NaN,NaN,NaN,NaN,NaN,NaN,NaN,NaN,NaN,NaN,NaN,NaN,NaN,NaN,NaN,NaN,NaN,NaN,30,비염,3.52887559984811,NaN,NaN,-0.255144032921811,0.662551440329218,NaN,NaN,NaN,NaN,NaN,NaN,,,NaN,NaN,NaN,NaN,NaN,NaN,NaN,NaN,NaN,NaN,NaN,,,NaN,NaN,NaN,NaN,NaN,,,,NaN,NaN,NaN,,NaN,NaN,NaN,NaN,NaN,NaN,NaN,NaN+0i,NaN+0i,NaN,NaN,NaN,NaN,11,26,남자,yes,yes,yes,yes,no,2023-04-11_10h28.30.904,Main,2022.2.4,30.0011910388905
NaN,,NaN,,,NaN,NaN,,,,NaN,,,,,NaN,,,0,0,0,0,NaN,NaN,NaN,NaN,2,0,2,0,NaN,NaN,NaN,NaN,NaN,NaN,NaN,NaN,NaN,NaN,NaN,NaN,NaN,NaN,NaN,NaN,NaN,NaN,NaN,NaN,NaN,NaN,NaN,NaN,NaN,NaN,NaN,NaN,NaN,NaN,NaN,NaN,NaN,NaN,NaN,NaN,NaN,NaN,NaN,NaN,NaN,NaN,NaN,NaN,NaN,NaN,NaN,NaN,30,날씨,3.30749229993671,NaN,NaN,-0.193415637860082,0.207818930041152,NaN,NaN,NaN,NaN,NaN,NaN,,,NaN,NaN,NaN,NaN,NaN,NaN,NaN,NaN,NaN,NaN,NaN,,,NaN,NaN,NaN,NaN,NaN,,,,NaN,NaN,NaN,,NaN,NaN,NaN,NaN,NaN,NaN,NaN,NaN+0i,NaN+0i,NaN,NaN,NaN,NaN,11,26,남자,yes,yes,yes,yes,no,2023-04-11_10h28.30.904,Main,2022.2.4,30.0011910388905
NaN,,NaN,,,NaN,NaN,,,,NaN,,,,,NaN,,,0,0,0,0,NaN,NaN,NaN,NaN,3,0,3,0,NaN,NaN,NaN,NaN,NaN,NaN,NaN,NaN,NaN,NaN,NaN,NaN,NaN,NaN,NaN,NaN,NaN,NaN,NaN,NaN,NaN,NaN,NaN,NaN,NaN,NaN,NaN,NaN,NaN,NaN,NaN,NaN,NaN,NaN,NaN,NaN,NaN,NaN,NaN,NaN,NaN,NaN,NaN,NaN,NaN,NaN,NaN,NaN,30,시험기간,3.71156309987418,NaN,NaN,-0.148148148148149,0.62962962962963,NaN,NaN,NaN,NaN,NaN,NaN,,,NaN,NaN,NaN,NaN,NaN,NaN,NaN,NaN,NaN,NaN,NaN,,,NaN,NaN,NaN,NaN,NaN,,,,NaN,NaN,NaN,,NaN,NaN,NaN,NaN,NaN,NaN,NaN,NaN+0i,NaN+0i,NaN,NaN,NaN,NaN,11,26,남자,yes,yes,yes,yes,no,2023-04-11_10h28.30.904,Main,2022.2.4,30.0011910388905
1,넌 교활해,5,Green,B,2.33333333333333,2.13333333333333,ScrollUp,ScrollDown,Green.png,NaN,,,,,NaN,,,NaN,NaN,NaN,NaN,NaN,NaN,NaN,NaN,NaN,NaN,NaN,NaN,0,0,0,0,NaN,NaN,NaN,NaN,NaN,NaN,NaN,NaN,0,0,0,0,0,0,0,0,NaN,NaN,NaN,NaN,NaN,NaN,NaN,NaN,NaN,NaN,NaN,NaN,NaN,NaN,NaN,NaN,NaN,NaN,NaN,NaN,NaN,NaN,NaN,NaN,NaN,NaN,NaN,NaN,NaN,,NaN,NaN,NaN,NaN,NaN,561.731129599968,561.731129599968,561.731129599968,561.731129599968,2,1.93177959998138,ScrollUp,정답,563.673756600125,563.673756600125,564.174094100017,564.699195200112,NaN,NaN,NaN,NaN,NaN,NaN,NaN,,,NaN,NaN,NaN,NaN,NaN,,,,NaN,NaN,NaN,,NaN,NaN,NaN,NaN,NaN,NaN,NaN,NaN+0i,NaN+0i,NaN,NaN,NaN,NaN,11,26,남자,yes,yes,yes,yes,no,2023-04-11_10h28.30.904,Main,2022.2.4,30.0011910388905
2,넌 슬기로워,2,Orange,A,6.16666666666667,4.1,ScrollDown,ScrollUp,Orange.png,NaN,,,,,NaN,,,NaN,NaN,NaN,NaN,NaN,NaN,NaN,NaN,NaN,NaN,NaN,NaN,0,0,0,0,NaN,NaN,NaN,NaN,NaN,NaN,NaN,NaN,0,0,0,0,0,1,1,1,NaN,NaN,NaN,NaN,NaN,NaN,NaN,NaN,NaN,NaN,NaN,NaN,NaN,NaN,NaN,NaN,NaN,NaN,NaN,NaN,NaN,NaN,NaN,NaN,NaN,NaN,NaN,NaN,NaN,,NaN,NaN,NaN,NaN,NaN,564.699195200112,564.699195200112,564.699195200112,564.699195200112,1,1.88203609990887,ScrollDown,정답,566.590299800038,566.590299800038,567.090733099962,567.590630399995,NaN,NaN,NaN,NaN,NaN,NaN,NaN,,,NaN,NaN,NaN,NaN,NaN,,,,NaN,NaN,NaN,,NaN,NaN,NaN,NaN,NaN,NaN,NaN,NaN+0i,NaN+0i,NaN,NaN,NaN,NaN,11,26,남자,yes,yes,yes,yes,no,2023-04-11_10h28.30.904,Main,2022.2.4,30.0011910388905
3,나를 보내줘,6,Orange,A,0,0,ScrollUp,ScrollDown,Orange.png,NaN,,,,,NaN,,,NaN,NaN,NaN,NaN,NaN,NaN,NaN,NaN,NaN,NaN,NaN,NaN,0,0,0,0,NaN,NaN,NaN,NaN,NaN,NaN,NaN,NaN,0,0,0,0,0,2,2,2,NaN,NaN,NaN,NaN,NaN,NaN,NaN,NaN,NaN,NaN,NaN,NaN,NaN,NaN,NaN,NaN,NaN,NaN,NaN,NaN,NaN,NaN,NaN,NaN,NaN,NaN,NaN,NaN,NaN,,NaN,NaN,NaN,NaN,NaN,567.590630399995,567.590630399995,567.590630399995,567.590630399995,1.97067901234568,1.46591529995203,ScrollUp,정답,569.090344500029,569.090344500029,569.590454099933,570.102670900058,NaN,NaN,NaN,NaN,NaN,NaN,NaN,,,NaN,NaN,NaN,NaN,NaN,,,,NaN,NaN,NaN,,NaN,NaN,NaN,NaN,NaN,NaN,NaN,NaN+0i,NaN+0i,NaN,NaN,NaN,NaN,11,26,남자,yes,yes,yes,yes,no,2023-04-11_10h28.30.904,Main,2022.2.4,30.0011910388905
4,나를 데려가줘,6,Green,B,0,0,ScrollDown,ScrollUp,Green.png,NaN,,,,,NaN,,,NaN,NaN,NaN,NaN,NaN,NaN,NaN,NaN,NaN,NaN,NaN,NaN,0,0,0,0,NaN,NaN,NaN,NaN,NaN,NaN,NaN,NaN,0,0,0,0,0,3,3,3,NaN,NaN,NaN,NaN,NaN,NaN,NaN,NaN,NaN,NaN,NaN,NaN,NaN,NaN,NaN,NaN,NaN,NaN,NaN,NaN,NaN,NaN,NaN,NaN,NaN,NaN,NaN,NaN,NaN,,NaN,NaN,NaN,NaN,NaN,570.102670900058,570.102670900058,570.102670900058,570.102670900058,1.01543209876543,1.6317648999393,ScrollDown,정답,571.757150599966,571.757150599966,572.257072899956,572.761831399985,NaN,NaN,NaN,NaN,NaN,NaN,NaN,,,NaN,NaN,NaN,NaN,NaN,,,,NaN,NaN,NaN,,NaN,NaN,NaN,NaN,NaN,NaN,NaN,NaN+0i,NaN+0i,NaN,NaN,NaN,NaN,11,26,남자,yes,yes,yes,yes,no,2023-04-11_10h28.30.904,Main,2022.2.4,30.0011910388905
1,넌 교활해,5,Green,B,2.33333333333333,2.13333333333333,ScrollUp,ScrollDown,Green.png,NaN,,,,,NaN,,,NaN,NaN,NaN,NaN,NaN,NaN,NaN,NaN,NaN,NaN,NaN,NaN,0,0,0,0,NaN,NaN,NaN,NaN,NaN,NaN,NaN,NaN,0,0,0,0,1,0,4,0,NaN,NaN,NaN,NaN,NaN,NaN,NaN,NaN,NaN,NaN,NaN,NaN,NaN,NaN,NaN,NaN,NaN,NaN,NaN,NaN,NaN,NaN,NaN,NaN,NaN,NaN,NaN,NaN,NaN,,NaN,NaN,NaN,NaN,NaN,572.761831399985,572.761831399985,572.761831399985,572.761831399985,2,1.52985149994493,ScrollUp,정답,574.323718399974,574.323718399974,574.823892400134,575.344661500072,NaN,NaN,NaN,NaN,NaN,NaN,NaN,,,NaN,NaN,NaN,NaN,NaN,,,,NaN,NaN,NaN,,NaN,NaN,NaN,NaN,NaN,NaN,NaN,NaN+0i,NaN+0i,NaN,NaN,NaN,NaN,11,26,남자,yes,yes,yes,yes,no,2023-04-11_10h28.30.904,Main,2022.2.4,30.0011910388905
2,넌 슬기로워,2,Orange,A,6.16666666666667,4.1,ScrollDown,ScrollUp,Orange.png,NaN,,,,,NaN,,,NaN,NaN,NaN,NaN,NaN,NaN,NaN,NaN,NaN,NaN,NaN,NaN,0,0,0,0,NaN,NaN,NaN,NaN,NaN,NaN,NaN,NaN,0,0,0,0,1,1,5,1,NaN,NaN,NaN,NaN,NaN,NaN,NaN,NaN,NaN,NaN,NaN,NaN,NaN,NaN,NaN,NaN,NaN,NaN,NaN,NaN,NaN,NaN,NaN,NaN,NaN,NaN,NaN,NaN,NaN,,NaN,NaN,NaN,NaN,NaN,575.344661500072,575.344661500072,575.344661500072,575.344661500072,1,1.44798730011098,ScrollDown,정답,576.806757299928,576.806757299928,577.307404200081,577.816619599937,NaN,NaN,NaN,NaN,NaN,NaN,NaN,,,NaN,NaN,NaN,NaN,NaN,,,,NaN,NaN,NaN,,NaN,NaN,NaN,NaN,NaN,NaN,NaN,NaN+0i,NaN+0i,NaN,NaN,NaN,NaN,11,26,남자,yes,yes,yes,yes,no,2023-04-11_10h28.30.904,Main,2022.2.4,30.0011910388905
3,나를 보내줘,6,Orange,A,0,0,ScrollUp,ScrollDown,Orange.png,NaN,,,,,NaN,,,NaN,NaN,NaN,NaN,NaN,NaN,NaN,NaN,NaN,NaN,NaN,NaN,0,0,0,0,NaN,NaN,NaN,NaN,NaN,NaN,NaN,NaN,0,0,0,0,1,2,6,2,NaN,NaN,NaN,NaN,NaN,NaN,NaN,NaN,NaN,NaN,NaN,NaN,NaN,NaN,NaN,NaN,NaN,NaN,NaN,NaN,NaN,NaN,NaN,NaN,NaN,NaN,NaN,NaN,NaN,,NaN,NaN,NaN,NaN,NaN,577.816619599937,577.816619599937,577.816619599937,577.816619599937,2,1.66400570003316,ScrollUp,정답,579.506842199946,579.506842199946,580.006981800077,580.513022900093,NaN,NaN,NaN,NaN,NaN,NaN,NaN,,,NaN,NaN,NaN,NaN,NaN,,,,NaN,NaN,NaN,,NaN,NaN,NaN,NaN,NaN,NaN,NaN,NaN+0i,NaN+0i,NaN,NaN,NaN,NaN,11,26,남자,yes,yes,yes,yes,no,2023-04-11_10h28.30.904,Main,2022.2.4,30.0011910388905
4,나를 데려가줘,6,Green,B,0,0,ScrollDown,ScrollUp,Green.png,NaN,,,,,NaN,,,NaN,NaN,NaN,NaN,NaN,NaN,NaN,NaN,NaN,NaN,NaN,NaN,0,0,0,0,NaN,NaN,NaN,NaN,NaN,NaN,NaN,NaN,0,0,0,0,1,3,7,3,NaN,NaN,NaN,NaN,NaN,NaN,NaN,NaN,NaN,NaN,NaN,NaN,NaN,NaN,NaN,NaN,NaN,NaN,NaN,NaN,NaN,NaN,NaN,NaN,NaN,NaN,NaN,NaN,NaN,,NaN,NaN,NaN,NaN,NaN,580.513022900093,580.513022900093,580.513022900093,580.513022900093,1,2.39977180003189,ScrollDown,정답,582.940793999936,582.940793999936,583.440963499947,583.948828299996,NaN,NaN,NaN,NaN,NaN,NaN,NaN,,,NaN,NaN,NaN,NaN,NaN,,,,NaN,NaN,NaN,,NaN,NaN,NaN,NaN,NaN,NaN,NaN,NaN+0i,NaN+0i,NaN,NaN,NaN,NaN,11,26,남자,yes,yes,yes,yes,no,2023-04-11_10h28.30.904,Main,2022.2.4,30.0011910388905
1,넌 교활해,5,Green,B,2.33333333333333,2.13333333333333,ScrollUp,ScrollDown,Green.png,NaN,,,,,NaN,,,NaN,NaN,NaN,NaN,NaN,NaN,NaN,NaN,NaN,NaN,NaN,NaN,0,0,0,0,NaN,NaN,NaN,NaN,NaN,NaN,NaN,NaN,0,0,0,0,2,0,8,0,NaN,NaN,NaN,NaN,NaN,NaN,NaN,NaN,NaN,NaN,NaN,NaN,NaN,NaN,NaN,NaN,NaN,NaN,NaN,NaN,NaN,NaN,NaN,NaN,NaN,NaN,NaN,NaN,NaN,,NaN,NaN,NaN,NaN,NaN,583.948828299996,583.948828299996,583.948828299996,583.948828299996,2,1.46369210002013,ScrollUp,정답,585.44033839996,585.44033839996,585.940348400036,586.447797599947,NaN,NaN,NaN,NaN,NaN,NaN,NaN,,,NaN,NaN,NaN,NaN,NaN,,,,NaN,NaN,NaN,,NaN,NaN,NaN,NaN,NaN,NaN,NaN,NaN+0i,NaN+0i,NaN,NaN,NaN,NaN,11,26,남자,yes,yes,yes,yes,no,2023-04-11_10h28.30.904,Main,2022.2.4,30.0011910388905
2,넌 슬기로워,2,Orange,A,6.16666666666667,4.1,ScrollDown,ScrollUp,Orange.png,NaN,,,,,NaN,,,NaN,NaN,NaN,NaN,NaN,NaN,NaN,NaN,NaN,NaN,NaN,NaN,0,0,0,0,NaN,NaN,NaN,NaN,NaN,NaN,NaN,NaN,0,0,0,0,2,1,9,1,NaN,NaN,NaN,NaN,NaN,NaN,NaN,NaN,NaN,NaN,NaN,NaN,NaN,NaN,NaN,NaN,NaN,NaN,NaN,NaN,NaN,NaN,NaN,NaN,NaN,NaN,NaN,NaN,NaN,,NaN,NaN,NaN,NaN,NaN,586.447797599947,586.447797599947,586.447797599947,586.447797599947,1,1.332004299853,ScrollDown,정답,587.807120500132,587.807120500132,588.306922600139,588.806854600087,NaN,NaN,NaN,NaN,NaN,NaN,NaN,,,NaN,NaN,NaN,NaN,NaN,,,,NaN,NaN,NaN,,NaN,NaN,NaN,NaN,NaN,NaN,NaN,NaN+0i,NaN+0i,NaN,NaN,NaN,NaN,11,26,남자,yes,yes,yes,yes,no,2023-04-11_10h28.30.904,Main,2022.2.4,30.0011910388905
3,나를 보내줘,6,Orange,A,0,0,ScrollUp,ScrollDown,Orange.png,NaN,,,,,NaN,,,NaN,NaN,NaN,NaN,NaN,NaN,NaN,NaN,NaN,NaN,NaN,NaN,0,0,0,0,NaN,NaN,NaN,NaN,NaN,NaN,NaN,NaN,0,0,0,0,2,2,10,2,NaN,NaN,NaN,NaN,NaN,NaN,NaN,NaN,NaN,NaN,NaN,NaN,NaN,NaN,NaN,NaN,NaN,NaN,NaN,NaN,NaN,NaN,NaN,NaN,NaN,NaN,NaN,NaN,NaN,,NaN,NaN,NaN,NaN,NaN,588.806854600087,588.806854600087,588.806854600087,588.806854600087,1.90895061728395,1.29932610015385,ScrollUp,정답,590.140256999992,590.140256999992,590.640361200087,591.140327600064,NaN,NaN,NaN,NaN,NaN,NaN,NaN,,,NaN,NaN,NaN,NaN,NaN,,,,NaN,NaN,NaN,,NaN,NaN,NaN,NaN,NaN,NaN,NaN,NaN+0i,NaN+0i,NaN,NaN,NaN,NaN,11,26,남자,yes,yes,yes,yes,no,2023-04-11_10h28.30.904,Main,2022.2.4,30.0011910388905
4,나를 데려가줘,6,Green,B,0,0,ScrollDown,ScrollUp,Green.png,NaN,,,,,NaN,,,NaN,NaN,NaN,NaN,NaN,NaN,NaN,NaN,NaN,NaN,NaN,NaN,0,0,0,0,NaN,NaN,NaN,NaN,NaN,NaN,NaN,NaN,0,0,0,0,2,3,11,3,NaN,NaN,NaN,NaN,NaN,NaN,NaN,NaN,NaN,NaN,NaN,NaN,NaN,NaN,NaN,NaN,NaN,NaN,NaN,NaN,NaN,NaN,NaN,NaN,NaN,NaN,NaN,NaN,NaN,,NaN,NaN,NaN,NaN,NaN,591.140327600064,591.140327600064,591.140327600064,591.140327600064,1,1.26783559983596,ScrollDown,정답,592.440367999952,592.440367999952,592.940392500022,593.440601699986,NaN,NaN,NaN,NaN,NaN,NaN,NaN,,,NaN,NaN,NaN,NaN,NaN,,,,NaN,NaN,NaN,,NaN,NaN,NaN,NaN,NaN,NaN,NaN,NaN+0i,NaN+0i,NaN,NaN,NaN,NaN,11,26,남자,yes,yes,yes,yes,no,2023-04-11_10h28.30.904,Main,2022.2.4,30.0011910388905
1,넌 따뜻해,1,Green,B,6.08333333333333,5.6,ScrollUp,ScrollDown,Green.png,1,Positive,Incongruent,,,NaN,,,NaN,NaN,NaN,NaN,NaN,NaN,NaN,NaN,NaN,NaN,NaN,NaN,0,0,0,0,NaN,NaN,NaN,NaN,NaN,NaN,NaN,NaN,0,0,0,0,NaN,NaN,NaN,NaN,0,0,0,0,0,0,0,0,NaN,NaN,NaN,NaN,NaN,NaN,NaN,NaN,NaN,NaN,NaN,NaN,NaN,NaN,NaN,NaN,NaN,NaN,NaN,NaN,NaN,,NaN,NaN,NaN,NaN,NaN,NaN,NaN,NaN,NaN,NaN,NaN,,,NaN,NaN,NaN,NaN,602.806308500003,602.806308500003,602.806308500003,602.806308500003,602.806308500003,2,1.50134310009889,ScrollUp,정답,604.323519899976,604.323519899976,604.823573300149,605.328611100093,NaN,,,,NaN,NaN,NaN,,NaN,NaN,NaN,NaN,NaN,NaN,NaN,NaN+0i,NaN+0i,NaN,NaN,NaN,NaN,11,26,남자,yes,yes,yes,yes,no,2023-04-11_10h28.30.904,Main,2022.2.4,30.0011910388905
2,넌 기품있어,2,Green,B,5.79166666666667,4.5,ScrollUp,ScrollDown,Green.png,1,Positive,Incongruent,,,NaN,,,NaN,NaN,NaN,NaN,NaN,NaN,NaN,NaN,NaN,NaN,NaN,NaN,0,0,0,0,NaN,NaN,NaN,NaN,NaN,NaN,NaN,NaN,0,0,0,0,NaN,NaN,NaN,NaN,0,0,0,0,0,1,1,1,NaN,NaN,NaN,NaN,NaN,NaN,NaN,NaN,NaN,NaN,NaN,NaN,NaN,NaN,NaN,NaN,NaN,NaN,NaN,NaN,NaN,,NaN,NaN,NaN,NaN,NaN,NaN,NaN,NaN,NaN,NaN,NaN,,,NaN,NaN,NaN,NaN,605.328611100093,605.328611100093,605.328611100093,605.328611100093,605.328611100093,2,1.26602070010267,ScrollUp,정답,606.623563700123,606.623563700123,607.123542499961,607.633022000082,NaN,,,,NaN,NaN,NaN,,NaN,NaN,NaN,NaN,NaN,NaN,NaN,NaN+0i,NaN+0i,NaN,NaN,NaN,NaN,11,26,남자,yes,yes,yes,yes,no,2023-04-11_10h28.30.904,Main,2022.2.4,30.0011910388905
3,나를 보내줘,6,Orange,A,0,0,ScrollUp,ScrollDown,Orange.png,1,NonTarget,NonTarget,,,NaN,,,NaN,NaN,NaN,NaN,NaN,NaN,NaN,NaN,NaN,NaN,NaN,NaN,0,0,0,0,NaN,NaN,NaN,NaN,NaN,NaN,NaN,NaN,0,0,0,0,NaN,NaN,NaN,NaN,0,0,0,0,0,2,2,2,NaN,NaN,NaN,NaN,NaN,NaN,NaN,NaN,NaN,NaN,NaN,NaN,NaN,NaN,NaN,NaN,NaN,NaN,NaN,NaN,NaN,,NaN,NaN,NaN,NaN,NaN,NaN,NaN,NaN,NaN,NaN,NaN,,,NaN,NaN,NaN,NaN,607.633022000082,607.633022000082,607.633022000082,607.633022000082,607.633022000082,2,1.1664429998491,ScrollUp,정답,608.823724500136,608.823724500136,609.3240735,609.829484600108,NaN,,,,NaN,NaN,NaN,,NaN,NaN,NaN,NaN,NaN,NaN,NaN,NaN+0i,NaN+0i,NaN,NaN,NaN,NaN,11,26,남자,yes,yes,yes,yes,no,2023-04-11_10h28.30.904,Main,2022.2.4,30.0011910388905
4,넌 수동적이야,4,Orange,A,2.83333333333333,2.93333333333333,ScrollDown,ScrollUp,Orange.png,1,Negative,Incongruent,,,NaN,,,NaN,NaN,NaN,NaN,NaN,NaN,NaN,NaN,NaN,NaN,NaN,NaN,0,0,0,0,NaN,NaN,NaN,NaN,NaN,NaN,NaN,NaN,0,0,0,0,NaN,NaN,NaN,NaN,0,0,0,0,0,3,3,3,NaN,NaN,NaN,NaN,NaN,NaN,NaN,NaN,NaN,NaN,NaN,NaN,NaN,NaN,NaN,NaN,NaN,NaN,NaN,NaN,NaN,,NaN,NaN,NaN,NaN,NaN,NaN,NaN,NaN,NaN,NaN,NaN,,,NaN,NaN,NaN,NaN,609.829484600108,609.829484600108,609.829484600108,609.829484600108,609.829484600108,1,1.10454560001381,ScrollDown,정답,610.956833499949,610.956833499949,611.457001100061,611.961206200067,NaN,,,,NaN,NaN,NaN,,NaN,NaN,NaN,NaN,NaN,NaN,NaN,NaN+0i,NaN+0i,NaN,NaN,NaN,NaN,11,26,남자,yes,yes,yes,yes,no,2023-04-11_10h28.30.904,Main,2022.2.4,30.0011910388905
5,넌 사심이 없어,3,Green,B,4.91666666666667,4.33333333333333,ScrollUp,ScrollDown,Green.png,1,Neutral,Neutral,,,NaN,,,NaN,NaN,NaN,NaN,NaN,NaN,NaN,NaN,NaN,NaN,NaN,NaN,0,0,0,0,NaN,NaN,NaN,NaN,NaN,NaN,NaN,NaN,0,0,0,0,NaN,NaN,NaN,NaN,0,0,0,0,0,4,4,4,NaN,NaN,NaN,NaN,NaN,NaN,NaN,NaN,NaN,NaN,NaN,NaN,NaN,NaN,NaN,NaN,NaN,NaN,NaN,NaN,NaN,,NaN,NaN,NaN,NaN,NaN,NaN,NaN,NaN,NaN,NaN,NaN,,,NaN,NaN,NaN,NaN,611.961206200067,611.961206200067,611.961206200067,611.961206200067,611.961206200067,2,1.10492349998094,ScrollUp,정답,613.09057780006,613.09057780006,613.590696500149,614.126532600028,NaN,,,,NaN,NaN,NaN,,NaN,NaN,NaN,NaN,NaN,NaN,NaN,NaN+0i,NaN+0i,NaN,NaN,NaN,NaN,11,26,남자,yes,yes,yes,yes,no,2023-04-11_10h28.30.904,Main,2022.2.4,30.0011910388905
6,넌 헤퍼,5,Orange,A,2.45833333333333,2.23333333333333,ScrollDown,ScrollUp,Orange.png,1,Negative,Incongruent,,,NaN,,,NaN,NaN,NaN,NaN,NaN,NaN,NaN,NaN,NaN,NaN,NaN,NaN,0,0,0,0,NaN,NaN,NaN,NaN,NaN,NaN,NaN,NaN,0,0,0,0,NaN,NaN,NaN,NaN,0,0,0,0,0,5,5,5,NaN,NaN,NaN,NaN,NaN,NaN,NaN,NaN,NaN,NaN,NaN,NaN,NaN,NaN,NaN,NaN,NaN,NaN,NaN,NaN,NaN,,NaN,NaN,NaN,NaN,NaN,NaN,NaN,NaN,NaN,NaN,NaN,,,NaN,NaN,NaN,NaN,614.126532600028,614.126532600028,614.126532600028,614.126532600028,614.126532600028,1,1.31292629987001,ScrollDown,정답,615.440288600046,615.440288600046,615.940519199939,616.443325900007,NaN,,,,NaN,NaN,NaN,,NaN,NaN,NaN,NaN,NaN,NaN,NaN,NaN+0i,NaN+0i,NaN,NaN,NaN,NaN,11,26,남자,yes,yes,yes,yes,no,2023-04-11_10h28.30.904,Main,2022.2.4,30.0011910388905
7,넌 말쑥해,3,Orange,A,4.83333333333333,4.33333333333333,ScrollDown,ScrollUp,Orange.png,1,Neutral,Neutral,,,NaN,,,NaN,NaN,NaN,NaN,NaN,NaN,NaN,NaN,NaN,NaN,NaN,NaN,0,0,0,0,NaN,NaN,NaN,NaN,NaN,NaN,NaN,NaN,0,0,0,0,NaN,NaN,NaN,NaN,0,0,0,0,0,6,6,6,NaN,NaN,NaN,NaN,NaN,NaN,NaN,NaN,NaN,NaN,NaN,NaN,NaN,NaN,NaN,NaN,NaN,NaN,NaN,NaN,NaN,,NaN,NaN,NaN,NaN,NaN,NaN,NaN,NaN,NaN,NaN,NaN,,,NaN,NaN,NaN,NaN,616.443325900007,616.443325900007,616.443325900007,616.443325900007,616.443325900007,1,1.27112429984845,ScrollDown,정답,617.740774099948,617.740774099948,618.240321099991,618.749012799934,NaN,,,,NaN,NaN,NaN,,NaN,NaN,NaN,NaN,NaN,NaN,NaN,NaN+0i,NaN+0i,NaN,NaN,NaN,NaN,11,26,남자,yes,yes,yes,yes,no,2023-04-11_10h28.30.904,Main,2022.2.4,30.0011910388905
8,넌 투덜거려,5,Green,B,2.54166666666667,2.26666666666667,ScrollUp,ScrollDown,Green.png,1,Negative,Congruent,,,NaN,,,NaN,NaN,NaN,NaN,NaN,NaN,NaN,NaN,NaN,NaN,NaN,NaN,0,0,0,0,NaN,NaN,NaN,NaN,NaN,NaN,NaN,NaN,0,0,0,0,NaN,NaN,NaN,NaN,0,0,0,0,0,7,7,7,NaN,NaN,NaN,NaN,NaN,NaN,NaN,NaN,NaN,NaN,NaN,NaN,NaN,NaN,NaN,NaN,NaN,NaN,NaN,NaN,NaN,,NaN,NaN,NaN,NaN,NaN,NaN,NaN,NaN,NaN,NaN,NaN,,,NaN,NaN,NaN,NaN,618.749012799934,618.749012799934,618.749012799934,618.749012799934,618.749012799934,1.88734567901235,1.09983439999633,ScrollUp,정답,619.873602400068,619.873602400068,620.373717200011,620.889884199947,NaN,,,,NaN,NaN,NaN,,NaN,NaN,NaN,NaN,NaN,NaN,NaN,NaN+0i,NaN+0i,NaN,NaN,NaN,NaN,11,26,남자,yes,yes,yes,yes,no,2023-04-11_10h28.30.904,Main,2022.2.4,30.0011910388905
9,넌 적극적이야,1,Orange,A,5.70833333333333,5.53333333333333,ScrollDown,ScrollUp,Orange.png,1,Positive,Congruent,,,NaN,,,NaN,NaN,NaN,NaN,NaN,NaN,NaN,NaN,NaN,NaN,NaN,NaN,0,0,0,0,NaN,NaN,NaN,NaN,NaN,NaN,NaN,NaN,0,0,0,0,NaN,NaN,NaN,NaN,0,0,0,0,0,8,8,8,NaN,NaN,NaN,NaN,NaN,NaN,NaN,NaN,NaN,NaN,NaN,NaN,NaN,NaN,NaN,NaN,NaN,NaN,NaN,NaN,NaN,,NaN,NaN,NaN,NaN,NaN,NaN,NaN,NaN,NaN,NaN,NaN,,,NaN,NaN,NaN,NaN,620.889884199947,620.889884199947,620.889884199947,620.889884199947,620.889884199947,1,1.36341500002891,ScrollDown,정답,622.273799200077,622.273799200077,622.773829600075,623.303670400055,NaN,,,,NaN,NaN,NaN,,NaN,NaN,NaN,NaN,NaN,NaN,NaN,NaN+0i,NaN+0i,NaN,NaN,NaN,NaN,11,26,남자,yes,yes,yes,yes,no,2023-04-11_10h28.30.904,Main,2022.2.4,30.0011910388905
10,넌 재미없어,4,Green,B,2.625,2.96666666666667,ScrollUp,ScrollDown,Green.png,1,Negative,Congruent,,,NaN,,,NaN,NaN,NaN,NaN,NaN,NaN,NaN,NaN,NaN,NaN,NaN,NaN,0,0,0,0,NaN,NaN,NaN,NaN,NaN,NaN,NaN,NaN,0,0,0,0,NaN,NaN,NaN,NaN,0,0,0,0,0,9,9,9,NaN,NaN,NaN,NaN,NaN,NaN,NaN,NaN,NaN,NaN,NaN,NaN,NaN,NaN,NaN,NaN,NaN,NaN,NaN,NaN,NaN,,NaN,NaN,NaN,NaN,NaN,NaN,NaN,NaN,NaN,NaN,NaN,,,NaN,NaN,NaN,NaN,623.303670400055,623.303670400055,623.303670400055,623.303670400055,623.303670400055,1.97067901234568,1.11963450000621,ScrollUp,정답,624.423584100092,624.423584100092,624.923864900135,625.447838700144,NaN,,,,NaN,NaN,NaN,,NaN,NaN,NaN,NaN,NaN,NaN,NaN,NaN+0i,NaN+0i,NaN,NaN,NaN,NaN,11,26,남자,yes,yes,yes,yes,no,2023-04-11_10h28.30.904,Main,2022.2.4,30.0011910388905
11,넌 명석해,2,Orange,A,5.875,4.03333333333333,ScrollDown,ScrollUp,Orange.png,1,Positive,Congruent,,,NaN,,,NaN,NaN,NaN,NaN,NaN,NaN,NaN,NaN,NaN,NaN,NaN,NaN,0,0,0,0,NaN,NaN,NaN,NaN,NaN,NaN,NaN,NaN,0,0,0,0,NaN,NaN,NaN,NaN,0,0,0,0,0,10,10,10,NaN,NaN,NaN,NaN,NaN,NaN,NaN,NaN,NaN,NaN,NaN,NaN,NaN,NaN,NaN,NaN,NaN,NaN,NaN,NaN,NaN,,NaN,NaN,NaN,NaN,NaN,NaN,NaN,NaN,NaN,NaN,NaN,,,NaN,NaN,NaN,NaN,625.447838700144,625.447838700144,625.447838700144,625.447838700144,625.447838700144,1,1.2485742000863,ScrollDown,정답,626.706942500081,626.706942500081,627.207234400092,627.719023399986,NaN,,,,NaN,NaN,NaN,,NaN,NaN,NaN,NaN,NaN,NaN,NaN,NaN+0i,NaN+0i,NaN,NaN,NaN,NaN,11,26,남자,yes,yes,yes,yes,no,2023-04-11_10h28.30.904,Main,2022.2.4,30.0011910388905
12,나를 데려가줘,6,Green,B,0,0,ScrollDown,ScrollUp,Green.png,1,NonTarget,NonTarget,,,NaN,,,NaN,NaN,NaN,NaN,NaN,NaN,NaN,NaN,NaN,NaN,NaN,NaN,0,0,0,0,NaN,NaN,NaN,NaN,NaN,NaN,NaN,NaN,0,0,0,0,NaN,NaN,NaN,NaN,0,0,0,0,0,11,11,11,NaN,NaN,NaN,NaN,NaN,NaN,NaN,NaN,NaN,NaN,NaN,NaN,NaN,NaN,NaN,NaN,NaN,NaN,NaN,NaN,NaN,,NaN,NaN,NaN,NaN,NaN,NaN,NaN,NaN,NaN,NaN,NaN,,,NaN,NaN,NaN,NaN,627.719023399986,627.719023399986,627.719023399986,627.719023399986,627.719023399986,1,1.17137949983589,ScrollDown,정답,628.907269200077,628.907269200077,629.407312199939,629.923325499985,NaN,,,,NaN,NaN,NaN,,NaN,NaN,NaN,NaN,NaN,NaN,NaN,NaN+0i,NaN+0i,NaN,NaN,NaN,NaN,11,26,남자,yes,yes,yes,yes,no,2023-04-11_10h28.30.904,Main,2022.2.4,30.0011910388905
13,넌 소심해,4,Orange,A,3,3.1,ScrollDown,ScrollUp,Orange.png,1,Negative,Incongruent,,,NaN,,,NaN,NaN,NaN,NaN,NaN,NaN,NaN,NaN,NaN,NaN,NaN,NaN,0,0,0,0,NaN,NaN,NaN,NaN,NaN,NaN,NaN,NaN,0,0,0,0,NaN,NaN,NaN,NaN,0,0,0,0,0,12,12,12,NaN,NaN,NaN,NaN,NaN,NaN,NaN,NaN,NaN,NaN,NaN,NaN,NaN,NaN,NaN,NaN,NaN,NaN,NaN,NaN,NaN,,NaN,NaN,NaN,NaN,NaN,NaN,NaN,NaN,NaN,NaN,NaN,,,NaN,NaN,NaN,NaN,629.923325499985,629.923325499985,629.923325499985,629.923325499985,629.923325499985,1.03395061728395,1.26497340016067,ScrollDown,정답,631.207477699965,631.207477699965,631.70691310009,632.220115400152,NaN,,,,NaN,NaN,NaN,,NaN,NaN,NaN,NaN,NaN,NaN,NaN,NaN+0i,NaN+0i,NaN,NaN,NaN,NaN,11,26,남자,yes,yes,yes,yes,no,2023-04-11_10h28.30.904,Main,2022.2.4,30.0011910388905
14,넌 합리적이야,2,Orange,A,5.58333333333333,4.73333333333333,ScrollDown,ScrollUp,Orange.png,1,Positive,Congruent,,,NaN,,,NaN,NaN,NaN,NaN,NaN,NaN,NaN,NaN,NaN,NaN,NaN,NaN,0,0,0,0,NaN,NaN,NaN,NaN,NaN,NaN,NaN,NaN,0,0,0,0,NaN,NaN,NaN,NaN,0,0,0,0,0,13,13,13,NaN,NaN,NaN,NaN,NaN,NaN,NaN,NaN,NaN,NaN,NaN,NaN,NaN,NaN,NaN,NaN,NaN,NaN,NaN,NaN,NaN,,NaN,NaN,NaN,NaN,NaN,NaN,NaN,NaN,NaN,NaN,NaN,,,NaN,NaN,NaN,NaN,632.220115400152,632.220115400152,632.220115400152,632.220115400152,632.220115400152,1,1.03074629977345,ScrollDown,정답,633.274061300093,633.274061300093,633.773714700015,634.278093900066,NaN,,,,NaN,NaN,NaN,,NaN,NaN,NaN,NaN,NaN,NaN,NaN,NaN+0i,NaN+0i,NaN,NaN,NaN,NaN,11,26,남자,yes,yes,yes,yes,no,2023-04-11_10h28.30.904,Main,2022.2.4,30.0011910388905
15,넌 무자비해,5,Green,B,2.33333333333333,2.1,ScrollUp,ScrollDown,Green.png,1,Negative,Congruent,,,NaN,,,NaN,NaN,NaN,NaN,NaN,NaN,NaN,NaN,NaN,NaN,NaN,NaN,0,0,0,0,NaN,NaN,NaN,NaN,NaN,NaN,NaN,NaN,0,0,0,0,NaN,NaN,NaN,NaN,0,0,0,0,0,14,14,14,NaN,NaN,NaN,NaN,NaN,NaN,NaN,NaN,NaN,NaN,NaN,NaN,NaN,NaN,NaN,NaN,NaN,NaN,NaN,NaN,NaN,,NaN,NaN,NaN,NaN,NaN,NaN,NaN,NaN,NaN,NaN,NaN,,,NaN,NaN,NaN,NaN,634.278093900066,634.278093900066,634.278093900066,634.278093900066,634.278093900066,2,1.26729779993184,ScrollUp,정답,635.573768000118,635.573768000118,636.073751999997,636.600910699926,NaN,,,,NaN,NaN,NaN,,NaN,NaN,NaN,NaN,NaN,NaN,NaN,NaN+0i,NaN+0i,NaN,NaN,NaN,NaN,11,26,남자,yes,yes,yes,yes,no,2023-04-11_10h28.30.904,Main,2022.2.4,30.0011910388905
16,나를 보내줘,6,Orange,A,0,0,ScrollUp,ScrollDown,Orange.png,1,NonTarget,NonTarget,,,NaN,,,NaN,NaN,NaN,NaN,NaN,NaN,NaN,NaN,NaN,NaN,NaN,NaN,0,0,0,0,NaN,NaN,NaN,NaN,NaN,NaN,NaN,NaN,0,0,0,0,NaN,NaN,NaN,NaN,0,0,0,0,0,15,15,15,NaN,NaN,NaN,NaN,NaN,NaN,NaN,NaN,NaN,NaN,NaN,NaN,NaN,NaN,NaN,NaN,NaN,NaN,NaN,NaN,NaN,,NaN,NaN,NaN,NaN,NaN,NaN,NaN,NaN,NaN,NaN,NaN,,,NaN,NaN,NaN,NaN,636.600910699926,636.600910699926,636.600910699926,636.600910699926,636.600910699926,2,1.18017609999515,ScrollUp,정답,637.790434899973,637.790434899973,638.29044459993,638.797337400028,NaN,,,,NaN,NaN,NaN,,NaN,NaN,NaN,NaN,NaN,NaN,NaN,NaN+0i,NaN+0i,NaN,NaN,NaN,NaN,11,26,남자,yes,yes,yes,yes,no,2023-04-11_10h28.30.904,Main,2022.2.4,30.0011910388905
17,넌 현실적이야,3,Green,B,4.60869565217391,4.76666666666667,ScrollUp,ScrollDown,Green.png,1,Neutral,Neutral,,,NaN,,,NaN,NaN,NaN,NaN,NaN,NaN,NaN,NaN,NaN,NaN,NaN,NaN,0,0,0,0,NaN,NaN,NaN,NaN,NaN,NaN,NaN,NaN,0,0,0,0,NaN,NaN,NaN,NaN,0,0,0,0,0,16,16,16,NaN,NaN,NaN,NaN,NaN,NaN,NaN,NaN,NaN,NaN,NaN,NaN,NaN,NaN,NaN,NaN,NaN,NaN,NaN,NaN,NaN,,NaN,NaN,NaN,NaN,NaN,NaN,NaN,NaN,NaN,NaN,NaN,,,NaN,NaN,NaN,NaN,638.797337400028,638.797337400028,638.797337400028,638.797337400028,638.797337400028,1.97685185185185,1.1333478000015,ScrollUp,정답,639.957164800027,639.957164800027,640.457168499939,640.975243099965,NaN,,,,NaN,NaN,NaN,,NaN,NaN,NaN,NaN,NaN,NaN,NaN,NaN+0i,NaN+0i,NaN,NaN,NaN,NaN,11,26,남자,yes,yes,yes,yes,no,2023-04-11_10h28.30.904,Main,2022.2.4,30.0011910388905
18,넌 의리있어,1,Green,B,5.83333333333333,5.63333333333333,ScrollUp,ScrollDown,Green.png,1,Positive,Incongruent,,,NaN,,,NaN,NaN,NaN,NaN,NaN,NaN,NaN,NaN,NaN,NaN,NaN,NaN,0,0,0,0,NaN,NaN,NaN,NaN,NaN,NaN,NaN,NaN,0,0,0,0,NaN,NaN,NaN,NaN,0,0,0,0,0,17,17,17,NaN,NaN,NaN,NaN,NaN,NaN,NaN,NaN,NaN,NaN,NaN,NaN,NaN,NaN,NaN,NaN,NaN,NaN,NaN,NaN,NaN,,NaN,NaN,NaN,NaN,NaN,NaN,NaN,NaN,NaN,NaN,NaN,,,NaN,NaN,NaN,NaN,640.975243099965,640.975243099965,640.975243099965,640.975243099965,640.975243099965,2,1.06412340002134,ScrollUp,정답,642.05693150009,642.05693150009,642.557176999981,643.067433800083,NaN,,,,NaN,NaN,NaN,,NaN,NaN,NaN,NaN,NaN,NaN,NaN,NaN+0i,NaN+0i,NaN,NaN,NaN,NaN,11,26,남자,yes,yes,yes,yes,no,2023-04-11_10h28.30.904,Main,2022.2.4,30.0011910388905
19,넌 신경과민이야,5,Orange,A,2.54166666666667,2.16666666666667,ScrollDown,ScrollUp,Orange.png,1,Negative,Incongruent,,,NaN,,,NaN,NaN,NaN,NaN,NaN,NaN,NaN,NaN,NaN,NaN,NaN,NaN,0,0,0,0,NaN,NaN,NaN,NaN,NaN,NaN,NaN,NaN,0,0,0,0,NaN,NaN,NaN,NaN,0,0,0,0,0,18,18,18,NaN,NaN,NaN,NaN,NaN,NaN,NaN,NaN,NaN,NaN,NaN,NaN,NaN,NaN,NaN,NaN,NaN,NaN,NaN,NaN,NaN,,NaN,NaN,NaN,NaN,NaN,NaN,NaN,NaN,NaN,NaN,NaN,,,NaN,NaN,NaN,NaN,643.067433800083,643.067433800083,643.067433800083,643.067433800083,643.067433800083,1.02777777777778,1.03830999997444,ScrollDown,정답,644.124127299991,644.124127299991,644.623775500106,645.123527300078,NaN,,,,NaN,NaN,NaN,,NaN,NaN,NaN,NaN,NaN,NaN,NaN,NaN+0i,NaN+0i,NaN,NaN,NaN,NaN,11,26,남자,yes,yes,yes,yes,no,2023-04-11_10h28.30.904,Main,2022.2.4,30.0011910388905
20,넌 편안해,1,Orange,A,5.91666666666667,5.86666666666667,ScrollDown,ScrollUp,Orange.png,1,Positive,Congruent,,,NaN,,,NaN,NaN,NaN,NaN,NaN,NaN,NaN,NaN,NaN,NaN,NaN,NaN,0,0,0,0,NaN,NaN,NaN,NaN,NaN,NaN,NaN,NaN,0,0,0,0,NaN,NaN,NaN,NaN,0,0,0,0,0,19,19,19,NaN,NaN,NaN,NaN,NaN,NaN,NaN,NaN,NaN,NaN,NaN,NaN,NaN,NaN,NaN,NaN,NaN,NaN,NaN,NaN,NaN,,NaN,NaN,NaN,NaN,NaN,NaN,NaN,NaN,NaN,NaN,NaN,,,NaN,NaN,NaN,NaN,645.123527300078,645.123527300078,645.123527300078,645.123527300078,645.123527300078,1,1.07260289997794,ScrollDown,정답,646.223706700141,646.223706700141,646.723753900034,647.248335700016,NaN,,,,NaN,NaN,NaN,,NaN,NaN,NaN,NaN,NaN,NaN,NaN,NaN+0i,NaN+0i,NaN,NaN,NaN,NaN,11,26,남자,yes,yes,yes,yes,no,2023-04-11_10h28.30.904,Main,2022.2.4,30.0011910388905
21,넌 품위있어,2,Green,B,5.29166666666667,4.46666666666667,ScrollUp,ScrollDown,Green.png,1,Positive,Incongruent,,,NaN,,,NaN,NaN,NaN,NaN,NaN,NaN,NaN,NaN,NaN,NaN,NaN,NaN,0,0,0,0,NaN,NaN,NaN,NaN,NaN,NaN,NaN,NaN,0,0,0,0,NaN,NaN,NaN,NaN,0,0,0,0,0,20,20,20,NaN,NaN,NaN,NaN,NaN,NaN,NaN,NaN,NaN,NaN,NaN,NaN,NaN,NaN,NaN,NaN,NaN,NaN,NaN,NaN,NaN,,NaN,NaN,NaN,NaN,NaN,NaN,NaN,NaN,NaN,NaN,NaN,,,NaN,NaN,NaN,NaN,647.248335700016,647.248335700016,647.248335700016,647.248335700016,647.248335700016,2,1.15331310010515,ScrollUp,정답,648.406792900059,648.406792900059,648.906928499928,649.414146899944,NaN,,,,NaN,NaN,NaN,,NaN,NaN,NaN,NaN,NaN,NaN,NaN,NaN+0i,NaN+0i,NaN,NaN,NaN,NaN,11,26,남자,yes,yes,yes,yes,no,2023-04-11_10h28.30.904,Main,2022.2.4,30.0011910388905
22,넌 빈틈없어,3,Orange,A,4.83333333333333,3.96666666666667,ScrollDown,ScrollUp,Orange.png,1,Neutral,Neutral,,,NaN,,,NaN,NaN,NaN,NaN,NaN,NaN,NaN,NaN,NaN,NaN,NaN,NaN,0,0,0,0,NaN,NaN,NaN,NaN,NaN,NaN,NaN,NaN,0,0,0,0,NaN,NaN,NaN,NaN,0,0,0,0,0,21,21,21,NaN,NaN,NaN,NaN,NaN,NaN,NaN,NaN,NaN,NaN,NaN,NaN,NaN,NaN,NaN,NaN,NaN,NaN,NaN,NaN,NaN,,NaN,NaN,NaN,NaN,NaN,NaN,NaN,NaN,NaN,NaN,NaN,,,NaN,NaN,NaN,NaN,649.414146899944,649.414146899944,649.414146899944,649.414146899944,649.414146899944,1,1.26684529986233,ScrollDown,정답,650.707084600115,650.707084600115,651.207082000095,651.718474500114,NaN,,,,NaN,NaN,NaN,,NaN,NaN,NaN,NaN,NaN,NaN,NaN,NaN+0i,NaN+0i,NaN,NaN,NaN,NaN,11,26,남자,yes,yes,yes,yes,no,2023-04-11_10h28.30.904,Main,2022.2.4,30.0011910388905
23,넌 상상력없어,4,Green,B,2.83333333333333,3.13333333333333,ScrollUp,ScrollDown,Green.png,1,Negative,Congruent,,,NaN,,,NaN,NaN,NaN,NaN,NaN,NaN,NaN,NaN,NaN,NaN,NaN,NaN,0,0,0,0,NaN,NaN,NaN,NaN,NaN,NaN,NaN,NaN,0,0,0,0,NaN,NaN,NaN,NaN,0,0,0,0,0,22,22,22,NaN,NaN,NaN,NaN,NaN,NaN,NaN,NaN,NaN,NaN,NaN,NaN,NaN,NaN,NaN,NaN,NaN,NaN,NaN,NaN,NaN,,NaN,NaN,NaN,NaN,NaN,NaN,NaN,NaN,NaN,NaN,NaN,,,NaN,NaN,NaN,NaN,651.718474500114,651.718474500114,651.718474500114,651.718474500114,651.718474500114,1.99845679012346,1.03269609995186,ScrollUp,정답,652.773643499939,652.773643499939,653.273764299927,653.77353360015,NaN,,,,NaN,NaN,NaN,,NaN,NaN,NaN,NaN,NaN,NaN,NaN,NaN+0i,NaN+0i,NaN,NaN,NaN,NaN,11,26,남자,yes,yes,yes,yes,no,2023-04-11_10h28.30.904,Main,2022.2.4,30.0011910388905
24,넌 지혜로워,2,Green,B,6.33333333333333,4.63333333333333,ScrollUp,ScrollDown,Green.png,1,Positive,Incongruent,,,NaN,,,NaN,NaN,NaN,NaN,NaN,NaN,NaN,NaN,NaN,NaN,NaN,NaN,0,0,0,0,NaN,NaN,NaN,NaN,NaN,NaN,NaN,NaN,0,0,0,0,NaN,NaN,NaN,NaN,0,0,0,0,0,23,23,23,NaN,NaN,NaN,NaN,NaN,NaN,NaN,NaN,NaN,NaN,NaN,NaN,NaN,NaN,NaN,NaN,NaN,NaN,NaN,NaN,NaN,,NaN,NaN,NaN,NaN,NaN,NaN,NaN,NaN,NaN,NaN,NaN,,,NaN,NaN,NaN,NaN,653.77353360015,653.77353360015,653.77353360015,653.77353360015,653.77353360015,2,1.13372309994884,ScrollUp,정답,654.940443099942,654.940443099942,655.440422600135,655.959819700103,NaN,,,,NaN,NaN,NaN,,NaN,NaN,NaN,NaN,NaN,NaN,NaN,NaN+0i,NaN+0i,NaN,NaN,NaN,NaN,11,26,남자,yes,yes,yes,yes,no,2023-04-11_10h28.30.904,Main,2022.2.4,30.0011910388905
25,넌 시끄러워,4,Orange,A,2.83333333333333,3.03333333333333,ScrollDown,ScrollUp,Orange.png,1,Negative,Incongruent,,,NaN,,,NaN,NaN,NaN,NaN,NaN,NaN,NaN,NaN,NaN,NaN,NaN,NaN,0,0,0,0,NaN,NaN,NaN,NaN,NaN,NaN,NaN,NaN,0,0,0,0,NaN,NaN,NaN,NaN,0,0,0,0,0,24,24,24,NaN,NaN,NaN,NaN,NaN,NaN,NaN,NaN,NaN,NaN,NaN,NaN,NaN,NaN,NaN,NaN,NaN,NaN,NaN,NaN,NaN,,NaN,NaN,NaN,NaN,NaN,NaN,NaN,NaN,NaN,NaN,NaN,,,NaN,NaN,NaN,NaN,655.959819700103,655.959819700103,655.959819700103,655.959819700103,655.959819700103,1,1.07176170009188,ScrollDown,정답,657.040869000135,657.040869000135,657.540458800038,658.046929300064,NaN,,,,NaN,NaN,NaN,,NaN,NaN,NaN,NaN,NaN,NaN,NaN,NaN+0i,NaN+0i,NaN,NaN,NaN,NaN,11,26,남자,yes,yes,yes,yes,no,2023-04-11_10h28.30.904,Main,2022.2.4,30.0011910388905
26,넌 만사태평이야,3,Green,B,4,4.33333333333333,ScrollUp,ScrollDown,Green.png,1,Neutral,Neutral,,,NaN,,,NaN,NaN,NaN,NaN,NaN,NaN,NaN,NaN,NaN,NaN,NaN,NaN,0,0,0,0,NaN,NaN,NaN,NaN,NaN,NaN,NaN,NaN,0,0,0,0,NaN,NaN,NaN,NaN,0,0,0,0,0,25,25,25,NaN,NaN,NaN,NaN,NaN,NaN,NaN,NaN,NaN,NaN,NaN,NaN,NaN,NaN,NaN,NaN,NaN,NaN,NaN,NaN,NaN,,NaN,NaN,NaN,NaN,NaN,NaN,NaN,NaN,NaN,NaN,NaN,,,NaN,NaN,NaN,NaN,658.046929300064,658.046929300064,658.046929300064,658.046929300064,658.046929300064,2,1.09987920010462,ScrollUp,정답,659.174086699961,659.174086699961,659.673771800008,660.213182100095,NaN,,,,NaN,NaN,NaN,,NaN,NaN,NaN,NaN,NaN,NaN,NaN,NaN+0i,NaN+0i,NaN,NaN,NaN,NaN,11,26,남자,yes,yes,yes,yes,no,2023-04-11_10h28.30.904,Main,2022.2.4,30.0011910388905
27,넌 붙임성있어,1,Orange,A,5.70833333333333,5.63333333333333,ScrollDown,ScrollUp,Orange.png,1,Positive,Congruent,,,NaN,,,NaN,NaN,NaN,NaN,NaN,NaN,NaN,NaN,NaN,NaN,NaN,NaN,0,0,0,0,NaN,NaN,NaN,NaN,NaN,NaN,NaN,NaN,0,0,0,0,NaN,NaN,NaN,NaN,0,0,0,0,0,26,26,26,NaN,NaN,NaN,NaN,NaN,NaN,NaN,NaN,NaN,NaN,NaN,NaN,NaN,NaN,NaN,NaN,NaN,NaN,NaN,NaN,NaN,,NaN,NaN,NaN,NaN,NaN,NaN,NaN,NaN,NaN,NaN,NaN,,,NaN,NaN,NaN,NaN,660.213182100095,660.213182100095,660.213182100095,660.213182100095,660.213182100095,1,1.19722589990124,ScrollDown,정답,661.407482699957,661.407482699957,661.907245700015,662.424819800071,NaN,,,,NaN,NaN,NaN,,NaN,NaN,NaN,NaN,NaN,NaN,NaN,NaN+0i,NaN+0i,NaN,NaN,NaN,NaN,11,26,남자,yes,yes,yes,yes,no,2023-04-11_10h28.30.904,Main,2022.2.4,30.0011910388905
28,넌 영리해,2,Orange,A,6,4.03333333333333,ScrollDown,ScrollUp,Orange.png,1,Positive,Congruent,,,NaN,,,NaN,NaN,NaN,NaN,NaN,NaN,NaN,NaN,NaN,NaN,NaN,NaN,0,0,0,0,NaN,NaN,NaN,NaN,NaN,NaN,NaN,NaN,0,0,0,0,NaN,NaN,NaN,NaN,0,0,0,0,0,27,27,27,NaN,NaN,NaN,NaN,NaN,NaN,NaN,NaN,NaN,NaN,NaN,NaN,NaN,NaN,NaN,NaN,NaN,NaN,NaN,NaN,NaN,,NaN,NaN,NaN,NaN,NaN,NaN,NaN,NaN,NaN,NaN,NaN,,,NaN,NaN,NaN,NaN,662.424819800071,662.424819800071,662.424819800071,662.424819800071,662.424819800071,1,1.06430629990064,ScrollDown,정답,663.507368700113,663.507368700113,664.007605399936,664.543230700074,NaN,,,,NaN,NaN,NaN,,NaN,NaN,NaN,NaN,NaN,NaN,NaN,NaN+0i,NaN+0i,NaN,NaN,NaN,NaN,11,26,남자,yes,yes,yes,yes,no,2023-04-11_10h28.30.904,Main,2022.2.4,30.0011910388905
29,넌 열심이야,1,Green,B,6.04166666666667,5.83333333333333,ScrollUp,ScrollDown,Green.png,1,Positive,Incongruent,,,NaN,,,NaN,NaN,NaN,NaN,NaN,NaN,NaN,NaN,NaN,NaN,NaN,NaN,0,0,0,0,NaN,NaN,NaN,NaN,NaN,NaN,NaN,NaN,0,0,0,0,NaN,NaN,NaN,NaN,0,0,0,0,0,28,28,28,NaN,NaN,NaN,NaN,NaN,NaN,NaN,NaN,NaN,NaN,NaN,NaN,NaN,NaN,NaN,NaN,NaN,NaN,NaN,NaN,NaN,,NaN,NaN,NaN,NaN,NaN,NaN,NaN,NaN,NaN,NaN,NaN,,,NaN,NaN,NaN,NaN,664.543230700074,664.543230700074,664.543230700074,664.543230700074,664.543230700074,1.93827160493827,1.1124060000293,ScrollUp,정답,665.657279000152,665.657279000152,666.157163500087,666.660802300088,NaN,,,,NaN,NaN,NaN,,NaN,NaN,NaN,NaN,NaN,NaN,NaN,NaN+0i,NaN+0i,NaN,NaN,NaN,NaN,11,26,남자,yes,yes,yes,yes,no,2023-04-11_10h28.30.904,Main,2022.2.4,30.0011910388905
30,넌 인기없어,4,Green,B,3,3.3,ScrollUp,ScrollDown,Green.png,1,Negative,Congruent,,,NaN,,,NaN,NaN,NaN,NaN,NaN,NaN,NaN,NaN,NaN,NaN,NaN,NaN,0,0,0,0,NaN,NaN,NaN,NaN,NaN,NaN,NaN,NaN,0,0,0,0,NaN,NaN,NaN,NaN,0,0,0,0,0,29,29,29,NaN,NaN,NaN,NaN,NaN,NaN,NaN,NaN,NaN,NaN,NaN,NaN,NaN,NaN,NaN,NaN,NaN,NaN,NaN,NaN,NaN,,NaN,NaN,NaN,NaN,NaN,NaN,NaN,NaN,NaN,NaN,NaN,,,NaN,NaN,NaN,NaN,666.660802300088,666.660802300088,666.660802300088,666.660802300088,666.660802300088,2,1.09934730012901,ScrollUp,정답,667.790457700146,667.790457700146,668.290525000077,668.799799300032,NaN,,,,NaN,NaN,NaN,,NaN,NaN,NaN,NaN,NaN,NaN,NaN,NaN+0i,NaN+0i,NaN,NaN,NaN,NaN,11,26,남자,yes,yes,yes,yes,no,2023-04-11_10h28.30.904,Main,2022.2.4,30.0011910388905
31,넌 익살스러워,3,Orange,A,4.70833333333333,4.83333333333333,ScrollDown,ScrollUp,Orange.png,1,Neutral,Neutral,,,NaN,,,NaN,NaN,NaN,NaN,NaN,NaN,NaN,NaN,NaN,NaN,NaN,NaN,0,0,0,0,NaN,NaN,NaN,NaN,NaN,NaN,NaN,NaN,0,0,0,0,NaN,NaN,NaN,NaN,0,0,0,0,0,30,30,30,NaN,NaN,NaN,NaN,NaN,NaN,NaN,NaN,NaN,NaN,NaN,NaN,NaN,NaN,NaN,NaN,NaN,NaN,NaN,NaN,NaN,,NaN,NaN,NaN,NaN,NaN,NaN,NaN,NaN,NaN,NaN,NaN,,,NaN,NaN,NaN,NaN,668.799799300032,668.799799300032,668.799799300032,668.799799300032,668.799799300032,1,0.972075599944219,ScrollDown,정답,669.790429099929,669.790429099929,670.290409200126,670.808201400097,NaN,,,,NaN,NaN,NaN,,NaN,NaN,NaN,NaN,NaN,NaN,NaN,NaN+0i,NaN+0i,NaN,NaN,NaN,NaN,11,26,남자,yes,yes,yes,yes,no,2023-04-11_10h28.30.904,Main,2022.2.4,30.0011910388905
32,넌 이기적이야,5,Green,B,2.29166666666667,2.33333333333333,ScrollUp,ScrollDown,Green.png,1,Negative,Congruent,,,NaN,,,NaN,NaN,NaN,NaN,NaN,NaN,NaN,NaN,NaN,NaN,NaN,NaN,0,0,0,0,NaN,NaN,NaN,NaN,NaN,NaN,NaN,NaN,0,0,0,0,NaN,NaN,NaN,NaN,0,0,0,0,0,31,31,31,NaN,NaN,NaN,NaN,NaN,NaN,NaN,NaN,NaN,NaN,NaN,NaN,NaN,NaN,NaN,NaN,NaN,NaN,NaN,NaN,NaN,,NaN,NaN,NaN,NaN,NaN,NaN,NaN,NaN,NaN,NaN,NaN,,,NaN,NaN,NaN,NaN,670.808201400097,670.808201400097,670.808201400097,670.808201400097,670.808201400097,2,1.33011159999296,ScrollUp,정답,672.15698780003,672.15698780003,672.657140200026,673.15695370012,NaN,,,,NaN,NaN,NaN,,NaN,NaN,NaN,NaN,NaN,NaN,NaN,NaN+0i,NaN+0i,NaN,NaN,NaN,NaN,11,26,남자,yes,yes,yes,yes,no,2023-04-11_10h28.30.904,Main,2022.2.4,30.0011910388905
33,나를 데려가줘,6,Green,B,0,0,ScrollDown,ScrollUp,Green.png,1,NonTarget,NonTarget,,,NaN,,,NaN,NaN,NaN,NaN,NaN,NaN,NaN,NaN,NaN,NaN,NaN,NaN,0,0,0,0,NaN,NaN,NaN,NaN,NaN,NaN,NaN,NaN,0,0,0,0,NaN,NaN,NaN,NaN,0,0,0,0,0,32,32,32,NaN,NaN,NaN,NaN,NaN,NaN,NaN,NaN,NaN,NaN,NaN,NaN,NaN,NaN,NaN,NaN,NaN,NaN,NaN,NaN,NaN,,NaN,NaN,NaN,NaN,NaN,NaN,NaN,NaN,NaN,NaN,NaN,,,NaN,NaN,NaN,NaN,673.15695370012,673.15695370012,673.15695370012,673.15695370012,673.15695370012,1,1.06721750018187,ScrollDown,정답,674.256948099937,674.256948099937,674.75693490007,675.264131500153,NaN,,,,NaN,NaN,NaN,,NaN,NaN,NaN,NaN,NaN,NaN,NaN,NaN+0i,NaN+0i,NaN,NaN,NaN,NaN,11,26,남자,yes,yes,yes,yes,no,2023-04-11_10h28.30.904,Main,2022.2.4,30.0011910388905
34,넌 기회주의자야,5,Orange,A,2.875,2.13333333333333,ScrollDown,ScrollUp,Orange.png,1,Negative,Incongruent,,,NaN,,,NaN,NaN,NaN,NaN,NaN,NaN,NaN,NaN,NaN,NaN,NaN,NaN,0,0,0,0,NaN,NaN,NaN,NaN,NaN,NaN,NaN,NaN,0,0,0,0,NaN,NaN,NaN,NaN,0,0,0,0,0,33,33,33,NaN,NaN,NaN,NaN,NaN,NaN,NaN,NaN,NaN,NaN,NaN,NaN,NaN,NaN,NaN,NaN,NaN,NaN,NaN,NaN,NaN,,NaN,NaN,NaN,NaN,NaN,NaN,NaN,NaN,NaN,NaN,NaN,,,NaN,NaN,NaN,NaN,675.264131500153,675.264131500153,675.264131500153,675.264131500153,675.264131500153,1,0.998770100064576,ScrollDown,정답,676.290269599995,676.290269599995,676.790713200113,677.290707000066,NaN,,,,NaN,NaN,NaN,,NaN,NaN,NaN,NaN,NaN,NaN,NaN,NaN+0i,NaN+0i,NaN,NaN,NaN,NaN,11,26,남자,yes,yes,yes,yes,no,2023-04-11_10h28.30.904,Main,2022.2.4,30.0011910388905
NaN,,NaN,,,NaN,NaN,,,,NaN,,,,,NaN,,,NaN,NaN,NaN,NaN,NaN,NaN,NaN,NaN,NaN,NaN,NaN,NaN,0,0,0,0,NaN,NaN,NaN,NaN,NaN,NaN,NaN,NaN,0,0,0,0,NaN,NaN,NaN,NaN,0,0,0,0,NaN,NaN,NaN,NaN,0,0,0,0,NaN,NaN,NaN,NaN,NaN,NaN,NaN,NaN,NaN,NaN,NaN,NaN,NaN,NaN,NaN,NaN,NaN,,NaN,NaN,NaN,NaN,NaN,NaN,NaN,NaN,NaN,NaN,NaN,,,NaN,NaN,NaN,NaN,NaN,NaN,NaN,NaN,NaN,NaN,NaN,,,NaN,NaN,NaN,NaN,2,,,,NaN,NaN,NaN,,NaN,NaN,NaN,NaN,NaN,NaN,NaN,NaN+0i,NaN+0i,NaN,NaN,NaN,NaN,11,26,남자,yes,yes,yes,yes,no,2023-04-11_10h28.30.904,Main,2022.2.4,30.0011910388905
NaN,,NaN,,,NaN,NaN,,,,NaN,,,,,NaN,,,NaN,NaN,NaN,NaN,NaN,NaN,NaN,NaN,NaN,NaN,NaN,NaN,0,0,0,0,NaN,NaN,NaN,NaN,NaN,NaN,NaN,NaN,0,0,0,0,NaN,NaN,NaN,NaN,0,0,0,0,NaN,NaN,NaN,NaN,NaN,NaN,NaN,NaN,NaN,NaN,NaN,NaN,NaN,NaN,NaN,NaN,NaN,NaN,NaN,NaN,NaN,NaN,NaN,NaN,NaN,,NaN,NaN,NaN,NaN,NaN,NaN,NaN,NaN,NaN,NaN,NaN,,,NaN,NaN,NaN,NaN,NaN,NaN,NaN,NaN,NaN,NaN,NaN,,,NaN,NaN,NaN,NaN,NaN,,,,NaN,NaN,NaN,,NaN,NaN,NaN,NaN,NaN,NaN,NaN,NaN+0i,NaN+0i,NaN,NaN,NaN,NaN,11,26,남자,yes,yes,yes,yes,no,2023-04-11_10h28.30.904,Main,2022.2.4,30.0011910388905
1,넌 미성숙해,4,Orange,A,3,3.2,ScrollDown,ScrollUp,Orange.png,2,Negative,Incongruent,,,NaN,,,NaN,NaN,NaN,NaN,NaN,NaN,NaN,NaN,NaN,NaN,NaN,NaN,0,0,0,0,NaN,NaN,NaN,NaN,NaN,NaN,NaN,NaN,0,0,0,0,NaN,NaN,NaN,NaN,1,0,1,0,0,0,0,0,NaN,NaN,NaN,NaN,NaN,NaN,NaN,NaN,NaN,NaN,NaN,NaN,NaN,NaN,NaN,NaN,NaN,NaN,NaN,NaN,NaN,,NaN,NaN,NaN,NaN,NaN,NaN,NaN,NaN,NaN,NaN,NaN,,,NaN,NaN,NaN,NaN,717.980718600098,717.980718600098,717.980718600098,717.980718600098,717.980718600098,1,1.30414759996347,ScrollDown,정답,719.323775999947,719.323775999947,719.823701099958,720.348010099959,NaN,,,,NaN,NaN,NaN,,NaN,NaN,NaN,NaN,NaN,NaN,NaN,NaN+0i,NaN+0i,NaN,NaN,NaN,NaN,11,26,남자,yes,yes,yes,yes,no,2023-04-11_10h28.30.904,Main,2022.2.4,30.0011910388905
2,넌 반사회적이야,5,Green,B,2.41666666666667,2.03333333333333,ScrollUp,ScrollDown,Green.png,2,Negative,Congruent,,,NaN,,,NaN,NaN,NaN,NaN,NaN,NaN,NaN,NaN,NaN,NaN,NaN,NaN,0,0,0,0,NaN,NaN,NaN,NaN,NaN,NaN,NaN,NaN,0,0,0,0,NaN,NaN,NaN,NaN,1,0,1,0,0,1,1,1,NaN,NaN,NaN,NaN,NaN,NaN,NaN,NaN,NaN,NaN,NaN,NaN,NaN,NaN,NaN,NaN,NaN,NaN,NaN,NaN,NaN,,NaN,NaN,NaN,NaN,NaN,NaN,NaN,NaN,NaN,NaN,NaN,,,NaN,NaN,NaN,NaN,720.348010099959,720.348010099959,720.348010099959,720.348010099959,720.348010099959,1.93518518518519,0.963077499996871,ScrollUp,정답,721.323963500094,721.323963500094,721.82385689998,722.356132700108,NaN,,,,NaN,NaN,NaN,,NaN,NaN,NaN,NaN,NaN,NaN,NaN,NaN+0i,NaN+0i,NaN,NaN,NaN,NaN,11,26,남자,yes,yes,yes,yes,no,2023-04-11_10h28.30.904,Main,2022.2.4,30.0011910388905
3,넌 유능해,2,Orange,A,6.20833333333333,4.43333333333333,ScrollDown,ScrollUp,Orange.png,2,Positive,Congruent,,,NaN,,,NaN,NaN,NaN,NaN,NaN,NaN,NaN,NaN,NaN,NaN,NaN,NaN,0,0,0,0,NaN,NaN,NaN,NaN,NaN,NaN,NaN,NaN,0,0,0,0,NaN,NaN,NaN,NaN,1,0,1,0,0,2,2,2,NaN,NaN,NaN,NaN,NaN,NaN,NaN,NaN,NaN,NaN,NaN,NaN,NaN,NaN,NaN,NaN,NaN,NaN,NaN,NaN,NaN,,NaN,NaN,NaN,NaN,NaN,NaN,NaN,NaN,NaN,NaN,NaN,,,NaN,NaN,NaN,NaN,722.356132700108,722.356132700108,722.356132700108,722.356132700108,722.356132700108,1,1.11684999987483,ScrollDown,정답,723.473904100014,723.473904100014,723.97406519996,724.494903099956,NaN,,,,NaN,NaN,NaN,,NaN,NaN,NaN,NaN,NaN,NaN,NaN,NaN+0i,NaN+0i,NaN,NaN,NaN,NaN,11,26,남자,yes,yes,yes,yes,no,2023-04-11_10h28.30.904,Main,2022.2.4,30.0011910388905
4,넌 능숙해,2,Green,B,5.66666666666667,4.73333333333333,ScrollUp,ScrollDown,Green.png,2,Positive,Incongruent,,,NaN,,,NaN,NaN,NaN,NaN,NaN,NaN,NaN,NaN,NaN,NaN,NaN,NaN,0,0,0,0,NaN,NaN,NaN,NaN,NaN,NaN,NaN,NaN,0,0,0,0,NaN,NaN,NaN,NaN,1,0,1,0,0,3,3,3,NaN,NaN,NaN,NaN,NaN,NaN,NaN,NaN,NaN,NaN,NaN,NaN,NaN,NaN,NaN,NaN,NaN,NaN,NaN,NaN,NaN,,NaN,NaN,NaN,NaN,NaN,NaN,NaN,NaN,NaN,NaN,NaN,,,NaN,NaN,NaN,NaN,724.494903099956,724.494903099956,724.494903099956,724.494903099956,724.494903099956,1.91203703703704,0.881467300001532,ScrollUp,정답,725.390948600136,725.390948600136,725.890709999949,726.412941399962,NaN,,,,NaN,NaN,NaN,,NaN,NaN,NaN,NaN,NaN,NaN,NaN,NaN+0i,NaN+0i,NaN,NaN,NaN,NaN,11,26,남자,yes,yes,yes,yes,no,2023-04-11_10h28.30.904,Main,2022.2.4,30.0011910388905
5,넌 진부해,4,Green,B,2.45833333333333,3.16666666666667,ScrollUp,ScrollDown,Green.png,2,Negative,Congruent,,,NaN,,,NaN,NaN,NaN,NaN,NaN,NaN,NaN,NaN,NaN,NaN,NaN,NaN,0,0,0,0,NaN,NaN,NaN,NaN,NaN,NaN,NaN,NaN,0,0,0,0,NaN,NaN,NaN,NaN,1,0,1,0,0,4,4,4,NaN,NaN,NaN,NaN,NaN,NaN,NaN,NaN,NaN,NaN,NaN,NaN,NaN,NaN,NaN,NaN,NaN,NaN,NaN,NaN,NaN,,NaN,NaN,NaN,NaN,NaN,NaN,NaN,NaN,NaN,NaN,NaN,,,NaN,NaN,NaN,NaN,726.412941399962,726.412941399962,726.412941399962,726.412941399962,726.412941399962,2,1.05285279988311,ScrollUp,정답,727.47423469997,727.47423469997,727.974177800119,728.494526300114,NaN,,,,NaN,NaN,NaN,,NaN,NaN,NaN,NaN,NaN,NaN,NaN,NaN+0i,NaN+0i,NaN,NaN,NaN,NaN,11,26,남자,yes,yes,yes,yes,no,2023-04-11_10h28.30.904,Main,2022.2.4,30.0011910388905
6,나를 보내줘,6,Orange,A,0,0,ScrollUp,ScrollDown,Orange.png,2,NonTarget,NonTarget,,,NaN,,,NaN,NaN,NaN,NaN,NaN,NaN,NaN,NaN,NaN,NaN,NaN,NaN,0,0,0,0,NaN,NaN,NaN,NaN,NaN,NaN,NaN,NaN,0,0,0,0,NaN,NaN,NaN,NaN,1,0,1,0,0,5,5,5,NaN,NaN,NaN,NaN,NaN,NaN,NaN,NaN,NaN,NaN,NaN,NaN,NaN,NaN,NaN,NaN,NaN,NaN,NaN,NaN,NaN,,NaN,NaN,NaN,NaN,NaN,NaN,NaN,NaN,NaN,NaN,NaN,,,NaN,NaN,NaN,NaN,728.494526300114,728.494526300114,728.494526300114,728.494526300114,728.494526300114,2,1.09731440013275,ScrollUp,정답,729.607049300103,729.607049300103,730.107163999928,730.60846820008,NaN,,,,NaN,NaN,NaN,,NaN,NaN,NaN,NaN,NaN,NaN,NaN,NaN+0i,NaN+0i,NaN,NaN,NaN,NaN,11,26,남자,yes,yes,yes,yes,no,2023-04-11_10h28.30.904,Main,2022.2.4,30.0011910388905
7,넌 엄격해,3,Orange,A,4.16666666666667,4.1,ScrollDown,ScrollUp,Orange.png,2,Neutral,Neutral,,,NaN,,,NaN,NaN,NaN,NaN,NaN,NaN,NaN,NaN,NaN,NaN,NaN,NaN,0,0,0,0,NaN,NaN,NaN,NaN,NaN,NaN,NaN,NaN,0,0,0,0,NaN,NaN,NaN,NaN,1,0,1,0,0,6,6,6,NaN,NaN,NaN,NaN,NaN,NaN,NaN,NaN,NaN,NaN,NaN,NaN,NaN,NaN,NaN,NaN,NaN,NaN,NaN,NaN,NaN,,NaN,NaN,NaN,NaN,NaN,NaN,NaN,NaN,NaN,NaN,NaN,,,NaN,NaN,NaN,NaN,730.60846820008,730.60846820008,730.60846820008,730.60846820008,730.60846820008,1,1.00005530007184,ScrollDown,정답,731.64058919996,731.64058919996,732.140779800015,732.6535439,NaN,,,,NaN,NaN,NaN,,NaN,NaN,NaN,NaN,NaN,NaN,NaN,NaN+0i,NaN+0i,NaN,NaN,NaN,NaN,11,26,남자,yes,yes,yes,yes,no,2023-04-11_10h28.30.904,Main,2022.2.4,30.0011910388905
8,나를 보내줘,6,Orange,A,0,0,ScrollUp,ScrollDown,Orange.png,2,NonTarget,NonTarget,,,NaN,,,NaN,NaN,NaN,NaN,NaN,NaN,NaN,NaN,NaN,NaN,NaN,NaN,0,0,0,0,NaN,NaN,NaN,NaN,NaN,NaN,NaN,NaN,0,0,0,0,NaN,NaN,NaN,NaN,1,0,1,0,0,7,7,7,NaN,NaN,NaN,NaN,NaN,NaN,NaN,NaN,NaN,NaN,NaN,NaN,NaN,NaN,NaN,NaN,NaN,NaN,NaN,NaN,NaN,,NaN,NaN,NaN,NaN,NaN,NaN,NaN,NaN,NaN,NaN,NaN,,,NaN,NaN,NaN,NaN,732.6535439,732.6535439,732.6535439,732.6535439,732.6535439,2,0.930311500094831,ScrollUp,정답,733.607151600067,733.607151600067,734.107287700055,734.61327890004,NaN,,,,NaN,NaN,NaN,,NaN,NaN,NaN,NaN,NaN,NaN,NaN,NaN+0i,NaN+0i,NaN,NaN,NaN,NaN,11,26,남자,yes,yes,yes,yes,no,2023-04-11_10h28.30.904,Main,2022.2.4,30.0011910388905
9,넌 대담해,3,Green,B,4.875,4.86666666666667,ScrollUp,ScrollDown,Green.png,2,Neutral,Neutral,,,NaN,,,NaN,NaN,NaN,NaN,NaN,NaN,NaN,NaN,NaN,NaN,NaN,NaN,0,0,0,0,NaN,NaN,NaN,NaN,NaN,NaN,NaN,NaN,0,0,0,0,NaN,NaN,NaN,NaN,1,0,1,0,0,8,8,8,NaN,NaN,NaN,NaN,NaN,NaN,NaN,NaN,NaN,NaN,NaN,NaN,NaN,NaN,NaN,NaN,NaN,NaN,NaN,NaN,NaN,,NaN,NaN,NaN,NaN,NaN,NaN,NaN,NaN,NaN,NaN,NaN,,,NaN,NaN,NaN,NaN,734.61327890004,734.61327890004,734.61327890004,734.61327890004,734.61327890004,1.97530864197531,0.971657899906859,ScrollUp,정답,735.607472900068,735.607472900068,736.107296100119,736.615354200127,NaN,,,,NaN,NaN,NaN,,NaN,NaN,NaN,NaN,NaN,NaN,NaN,NaN+0i,NaN+0i,NaN,NaN,NaN,NaN,11,26,남자,yes,yes,yes,yes,no,2023-04-11_10h28.30.904,Main,2022.2.4,30.0011910388905
10,넌 꾸준해,1,Orange,A,5.91666666666667,5.8,ScrollDown,ScrollUp,Orange.png,2,Positive,Congruent,,,NaN,,,NaN,NaN,NaN,NaN,NaN,NaN,NaN,NaN,NaN,NaN,NaN,NaN,0,0,0,0,NaN,NaN,NaN,NaN,NaN,NaN,NaN,NaN,0,0,0,0,NaN,NaN,NaN,NaN,1,0,1,0,0,9,9,9,NaN,NaN,NaN,NaN,NaN,NaN,NaN,NaN,NaN,NaN,NaN,NaN,NaN,NaN,NaN,NaN,NaN,NaN,NaN,NaN,NaN,,NaN,NaN,NaN,NaN,NaN,NaN,NaN,NaN,NaN,NaN,NaN,,,NaN,NaN,NaN,NaN,736.615354200127,736.615354200127,736.615354200127,736.615354200127,736.615354200127,1.06018518518519,0.866555999964476,ScrollDown,정답,737.507494900143,737.507494900143,738.007609599968,738.515692800051,NaN,,,,NaN,NaN,NaN,,NaN,NaN,NaN,NaN,NaN,NaN,NaN,NaN+0i,NaN+0i,NaN,NaN,NaN,NaN,11,26,남자,yes,yes,yes,yes,no,2023-04-11_10h28.30.904,Main,2022.2.4,30.0011910388905
11,나를 데려가줘,6,Green,B,0,0,ScrollDown,ScrollUp,Green.png,2,NonTarget,NonTarget,,,NaN,,,NaN,NaN,NaN,NaN,NaN,NaN,NaN,NaN,NaN,NaN,NaN,NaN,0,0,0,0,NaN,NaN,NaN,NaN,NaN,NaN,NaN,NaN,0,0,0,0,NaN,NaN,NaN,NaN,1,0,1,0,0,10,10,10,NaN,NaN,NaN,NaN,NaN,NaN,NaN,NaN,NaN,NaN,NaN,NaN,NaN,NaN,NaN,NaN,NaN,NaN,NaN,NaN,NaN,,NaN,NaN,NaN,NaN,NaN,NaN,NaN,NaN,NaN,NaN,NaN,,,NaN,NaN,NaN,NaN,738.515692800051,738.515692800051,738.515692800051,738.515692800051,738.515692800051,1.02469135802469,1.06622139993124,ScrollDown,정답,739.607128300006,739.607128300006,740.107156600105,740.614435099997,NaN,,,,NaN,NaN,NaN,,NaN,NaN,NaN,NaN,NaN,NaN,NaN,NaN+0i,NaN+0i,NaN,NaN,NaN,NaN,11,26,남자,yes,yes,yes,yes,no,2023-04-11_10h28.30.904,Main,2022.2.4,30.0011910388905
12,넌 독선적이야,5,Orange,A,2.45833333333333,1.93333333333333,ScrollDown,ScrollUp,Orange.png,2,Negative,Incongruent,,,NaN,,,NaN,NaN,NaN,NaN,NaN,NaN,NaN,NaN,NaN,NaN,NaN,NaN,0,0,0,0,NaN,NaN,NaN,NaN,NaN,NaN,NaN,NaN,0,0,0,0,NaN,NaN,NaN,NaN,1,0,1,0,0,11,11,11,NaN,NaN,NaN,NaN,NaN,NaN,NaN,NaN,NaN,NaN,NaN,NaN,NaN,NaN,NaN,NaN,NaN,NaN,NaN,NaN,NaN,,NaN,NaN,NaN,NaN,NaN,NaN,NaN,NaN,NaN,NaN,NaN,,,NaN,NaN,NaN,NaN,740.614435099997,740.614435099997,740.614435099997,740.614435099997,740.614435099997,2,1.40040770010091,ScrollUp,오답,742.040510199964,742.040510199964,742.540671400027,743.040525299963,NaN,,,,NaN,NaN,NaN,,NaN,NaN,NaN,NaN,NaN,NaN,NaN,NaN+0i,NaN+0i,NaN,NaN,NaN,NaN,11,26,남자,yes,yes,yes,yes,no,2023-04-11_10h28.30.904,Main,2022.2.4,30.0011910388905
13,나를 보내줘,6,Orange,A,0,0,ScrollUp,ScrollDown,Orange.png,2,NonTarget,NonTarget,,,NaN,,,NaN,NaN,NaN,NaN,NaN,NaN,NaN,NaN,NaN,NaN,NaN,NaN,0,0,0,0,NaN,NaN,NaN,NaN,NaN,NaN,NaN,NaN,0,0,0,0,NaN,NaN,NaN,NaN,1,0,1,0,0,12,12,12,NaN,NaN,NaN,NaN,NaN,NaN,NaN,NaN,NaN,NaN,NaN,NaN,NaN,NaN,NaN,NaN,NaN,NaN,NaN,NaN,NaN,,NaN,NaN,NaN,NaN,NaN,NaN,NaN,NaN,NaN,NaN,NaN,,,NaN,NaN,NaN,NaN,743.040525299963,743.040525299963,743.040525299963,743.040525299963,743.040525299963,1.96604938271605,1.39989660005085,ScrollUp,정답,744.473876700038,744.473876700038,744.974212700035,745.502998800017,NaN,,,,NaN,NaN,NaN,,NaN,NaN,NaN,NaN,NaN,NaN,NaN,NaN+0i,NaN+0i,NaN,NaN,NaN,NaN,11,26,남자,yes,yes,yes,yes,no,2023-04-11_10h28.30.904,Main,2022.2.4,30.0011910388905
14,넌 책임감있어,1,Green,B,6.34782608695652,6,ScrollUp,ScrollDown,Green.png,2,Positive,Incongruent,,,NaN,,,NaN,NaN,NaN,NaN,NaN,NaN,NaN,NaN,NaN,NaN,NaN,NaN,0,0,0,0,NaN,NaN,NaN,NaN,NaN,NaN,NaN,NaN,0,0,0,0,NaN,NaN,NaN,NaN,1,0,1,0,0,13,13,13,NaN,NaN,NaN,NaN,NaN,NaN,NaN,NaN,NaN,NaN,NaN,NaN,NaN,NaN,NaN,NaN,NaN,NaN,NaN,NaN,NaN,,NaN,NaN,NaN,NaN,NaN,NaN,NaN,NaN,NaN,NaN,NaN,,,NaN,NaN,NaN,NaN,745.502998800017,745.502998800017,745.502998800017,745.502998800017,745.502998800017,1.92592592592593,1.71356009994633,ScrollUp,정답,747.22389880009,747.22389880009,747.723884700099,748.236384500051,NaN,,,,NaN,NaN,NaN,,NaN,NaN,NaN,NaN,NaN,NaN,NaN,NaN+0i,NaN+0i,NaN,NaN,NaN,NaN,11,26,남자,yes,yes,yes,yes,no,2023-04-11_10h28.30.904,Main,2022.2.4,30.0011910388905
15,넌 문학적이야,3,Orange,A,4.70833333333333,4.33333333333333,ScrollDown,ScrollUp,Orange.png,2,Neutral,Neutral,,,NaN,,,NaN,NaN,NaN,NaN,NaN,NaN,NaN,NaN,NaN,NaN,NaN,NaN,0,0,0,0,NaN,NaN,NaN,NaN,NaN,NaN,NaN,NaN,0,0,0,0,NaN,NaN,NaN,NaN,1,0,1,0,0,14,14,14,NaN,NaN,NaN,NaN,NaN,NaN,NaN,NaN,NaN,NaN,NaN,NaN,NaN,NaN,NaN,NaN,NaN,NaN,NaN,NaN,NaN,,NaN,NaN,NaN,NaN,NaN,NaN,NaN,NaN,NaN,NaN,NaN,,,NaN,NaN,NaN,NaN,748.236384500051,748.236384500051,748.236384500051,748.236384500051,748.236384500051,1.07407407407407,1.29924379987642,ScrollDown,정답,749.557204300072,749.557204300072,750.057058400009,750.561639500083,NaN,,,,NaN,NaN,NaN,,NaN,NaN,NaN,NaN,NaN,NaN,NaN,NaN+0i,NaN+0i,NaN,NaN,NaN,NaN,11,26,남자,yes,yes,yes,yes,no,2023-04-11_10h28.30.904,Main,2022.2.4,30.0011910388905
16,넌 재미있어,1,Green,B,5.875,5.7,ScrollUp,ScrollDown,Green.png,2,Positive,Incongruent,,,NaN,,,NaN,NaN,NaN,NaN,NaN,NaN,NaN,NaN,NaN,NaN,NaN,NaN,0,0,0,0,NaN,NaN,NaN,NaN,NaN,NaN,NaN,NaN,0,0,0,0,NaN,NaN,NaN,NaN,1,0,1,0,0,15,15,15,NaN,NaN,NaN,NaN,NaN,NaN,NaN,NaN,NaN,NaN,NaN,NaN,NaN,NaN,NaN,NaN,NaN,NaN,NaN,NaN,NaN,,NaN,NaN,NaN,NaN,NaN,NaN,NaN,NaN,NaN,NaN,NaN,,,NaN,NaN,NaN,NaN,750.561639500083,750.561639500083,750.561639500083,750.561639500083,750.561639500083,2,1.23372230003588,ScrollUp,정답,751.824008800089,751.824008800089,752.323897700058,752.823912600055,NaN,,,,NaN,NaN,NaN,,NaN,NaN,NaN,NaN,NaN,NaN,NaN,NaN+0i,NaN+0i,NaN,NaN,NaN,NaN,11,26,남자,yes,yes,yes,yes,no,2023-04-11_10h28.30.904,Main,2022.2.4,30.0011910388905
17,나를 데려가줘,6,Green,B,0,0,ScrollDown,ScrollUp,Green.png,2,NonTarget,NonTarget,,,NaN,,,NaN,NaN,NaN,NaN,NaN,NaN,NaN,NaN,NaN,NaN,NaN,NaN,0,0,0,0,NaN,NaN,NaN,NaN,NaN,NaN,NaN,NaN,0,0,0,0,NaN,NaN,NaN,NaN,1,0,1,0,0,16,16,16,NaN,NaN,NaN,NaN,NaN,NaN,NaN,NaN,NaN,NaN,NaN,NaN,NaN,NaN,NaN,NaN,NaN,NaN,NaN,NaN,NaN,,NaN,NaN,NaN,NaN,NaN,NaN,NaN,NaN,NaN,NaN,NaN,,,NaN,NaN,NaN,NaN,752.823912600055,752.823912600055,752.823912600055,752.823912600055,752.823912600055,1,1.13238420011476,ScrollDown,정답,753.990613400005,753.990613400005,754.490684200078,755.0187876001,NaN,,,,NaN,NaN,NaN,,NaN,NaN,NaN,NaN,NaN,NaN,NaN,NaN+0i,NaN+0i,NaN,NaN,NaN,NaN,11,26,남자,yes,yes,yes,yes,no,2023-04-11_10h28.30.904,Main,2022.2.4,30.0011910388905
18,넌 협력적이야,1,Orange,A,5.625,5.63333333333333,ScrollDown,ScrollUp,Orange.png,2,Positive,Congruent,,,NaN,,,NaN,NaN,NaN,NaN,NaN,NaN,NaN,NaN,NaN,NaN,NaN,NaN,0,0,0,0,NaN,NaN,NaN,NaN,NaN,NaN,NaN,NaN,0,0,0,0,NaN,NaN,NaN,NaN,1,0,1,0,0,17,17,17,NaN,NaN,NaN,NaN,NaN,NaN,NaN,NaN,NaN,NaN,NaN,NaN,NaN,NaN,NaN,NaN,NaN,NaN,NaN,NaN,NaN,,NaN,NaN,NaN,NaN,NaN,NaN,NaN,NaN,NaN,NaN,NaN,,,NaN,NaN,NaN,NaN,755.0187876001,755.0187876001,755.0187876001,755.0187876001,755.0187876001,1.13734567901235,1.148107299814,ScrollDown,정답,756.174314799951,756.174314799951,756.673987500137,757.194186500041,NaN,,,,NaN,NaN,NaN,,NaN,NaN,NaN,NaN,NaN,NaN,NaN,NaN+0i,NaN+0i,NaN,NaN,NaN,NaN,11,26,남자,yes,yes,yes,yes,no,2023-04-11_10h28.30.904,Main,2022.2.4,30.0011910388905
19,넌 평범해,3,Green,B,4.33333333333333,4.23333333333333,ScrollUp,ScrollDown,Green.png,2,Neutral,Neutral,,,NaN,,,NaN,NaN,NaN,NaN,NaN,NaN,NaN,NaN,NaN,NaN,NaN,NaN,0,0,0,0,NaN,NaN,NaN,NaN,NaN,NaN,NaN,NaN,0,0,0,0,NaN,NaN,NaN,NaN,1,0,1,0,0,18,18,18,NaN,NaN,NaN,NaN,NaN,NaN,NaN,NaN,NaN,NaN,NaN,NaN,NaN,NaN,NaN,NaN,NaN,NaN,NaN,NaN,NaN,,NaN,NaN,NaN,NaN,NaN,NaN,NaN,NaN,NaN,NaN,NaN,,,NaN,NaN,NaN,NaN,757.194186500041,757.194186500041,757.194186500041,757.194186500041,757.194186500041,1.89506172839506,1.08620269992389,ScrollUp,정답,758.290634399978,758.290634399978,758.790845599957,759.317090500146,NaN,,,,NaN,NaN,NaN,,NaN,NaN,NaN,NaN,NaN,NaN,NaN,NaN+0i,NaN+0i,NaN,NaN,NaN,NaN,11,26,남자,yes,yes,yes,yes,no,2023-04-11_10h28.30.904,Main,2022.2.4,30.0011910388905
20,넌 오만해,5,Orange,A,2.33333333333333,2,ScrollDown,ScrollUp,Orange.png,2,Negative,Incongruent,,,NaN,,,NaN,NaN,NaN,NaN,NaN,NaN,NaN,NaN,NaN,NaN,NaN,NaN,0,0,0,0,NaN,NaN,NaN,NaN,NaN,NaN,NaN,NaN,0,0,0,0,NaN,NaN,NaN,NaN,1,0,1,0,0,19,19,19,NaN,NaN,NaN,NaN,NaN,NaN,NaN,NaN,NaN,NaN,NaN,NaN,NaN,NaN,NaN,NaN,NaN,NaN,NaN,NaN,NaN,,NaN,NaN,NaN,NaN,NaN,NaN,NaN,NaN,NaN,NaN,NaN,,,NaN,NaN,NaN,NaN,759.317090500146,759.317090500146,759.317090500146,759.317090500146,759.317090500146,1.10185185185185,1.120143200038,ScrollDown,정답,760.440965400077,760.440965400077,760.940602099989,761.446023399942,NaN,,,,NaN,NaN,NaN,,NaN,NaN,NaN,NaN,NaN,NaN,NaN,NaN+0i,NaN+0i,NaN,NaN,NaN,NaN,11,26,남자,yes,yes,yes,yes,no,2023-04-11_10h28.30.904,Main,2022.2.4,30.0011910388905
21,넌 운이없어,4,Green,B,3,3.46666666666667,ScrollUp,ScrollDown,Green.png,2,Negative,Congruent,,,NaN,,,NaN,NaN,NaN,NaN,NaN,NaN,NaN,NaN,NaN,NaN,NaN,NaN,0,0,0,0,NaN,NaN,NaN,NaN,NaN,NaN,NaN,NaN,0,0,0,0,NaN,NaN,NaN,NaN,1,0,1,0,0,20,20,20,NaN,NaN,NaN,NaN,NaN,NaN,NaN,NaN,NaN,NaN,NaN,NaN,NaN,NaN,NaN,NaN,NaN,NaN,NaN,NaN,NaN,,NaN,NaN,NaN,NaN,NaN,NaN,NaN,NaN,NaN,NaN,NaN,,,NaN,NaN,NaN,NaN,761.446023399942,761.446023399942,761.446023399942,761.446023399942,761.446023399942,1.98302469135802,1.69901360012591,ScrollUp,정답,763.173893400002,763.173893400002,763.674218400149,764.188760600053,NaN,,,,NaN,NaN,NaN,,NaN,NaN,NaN,NaN,NaN,NaN,NaN,NaN+0i,NaN+0i,NaN,NaN,NaN,NaN,11,26,남자,yes,yes,yes,yes,no,2023-04-11_10h28.30.904,Main,2022.2.4,30.0011910388905
22,넌 창조적이야,2,Green,B,6.125,4.63333333333333,ScrollUp,ScrollDown,Green.png,2,Positive,Incongruent,,,NaN,,,NaN,NaN,NaN,NaN,NaN,NaN,NaN,NaN,NaN,NaN,NaN,NaN,0,0,0,0,NaN,NaN,NaN,NaN,NaN,NaN,NaN,NaN,0,0,0,0,NaN,NaN,NaN,NaN,1,0,1,0,0,21,21,21,NaN,NaN,NaN,NaN,NaN,NaN,NaN,NaN,NaN,NaN,NaN,NaN,NaN,NaN,NaN,NaN,NaN,NaN,NaN,NaN,NaN,,NaN,NaN,NaN,NaN,NaN,NaN,NaN,NaN,NaN,NaN,NaN,,,NaN,NaN,NaN,NaN,764.188760600053,764.188760600053,764.188760600053,764.188760600053,764.188760600053,1.98765432098765,1.10262710019015,ScrollUp,정답,765.307507199934,765.307507199934,765.807534200139,766.32988850004,NaN,,,,NaN,NaN,NaN,,NaN,NaN,NaN,NaN,NaN,NaN,NaN,NaN+0i,NaN+0i,NaN,NaN,NaN,NaN,11,26,남자,yes,yes,yes,yes,no,2023-04-11_10h28.30.904,Main,2022.2.4,30.0011910388905
23,나를 보내줘,6,Orange,A,0,0,ScrollUp,ScrollDown,Orange.png,2,NonTarget,NonTarget,,,NaN,,,NaN,NaN,NaN,NaN,NaN,NaN,NaN,NaN,NaN,NaN,NaN,NaN,0,0,0,0,NaN,NaN,NaN,NaN,NaN,NaN,NaN,NaN,0,0,0,0,NaN,NaN,NaN,NaN,1,0,1,0,0,22,22,22,NaN,NaN,NaN,NaN,NaN,NaN,NaN,NaN,NaN,NaN,NaN,NaN,NaN,NaN,NaN,NaN,NaN,NaN,NaN,NaN,NaN,,NaN,NaN,NaN,NaN,NaN,NaN,NaN,NaN,NaN,NaN,NaN,,,NaN,NaN,NaN,NaN,766.32988850004,766.32988850004,766.32988850004,766.32988850004,766.32988850004,1.90432098765432,1.05191390006803,ScrollUp,정답,767.390438300092,767.390438300092,767.890680599958,768.412705100141,NaN,,,,NaN,NaN,NaN,,NaN,NaN,NaN,NaN,NaN,NaN,NaN,NaN+0i,NaN+0i,NaN,NaN,NaN,NaN,11,26,남자,yes,yes,yes,yes,no,2023-04-11_10h28.30.904,Main,2022.2.4,30.0011910388905
24,넌 통찰력있어,2,Orange,A,6.5,4.8,ScrollDown,ScrollUp,Orange.png,2,Positive,Congruent,,,NaN,,,NaN,NaN,NaN,NaN,NaN,NaN,NaN,NaN,NaN,NaN,NaN,NaN,0,0,0,0,NaN,NaN,NaN,NaN,NaN,NaN,NaN,NaN,0,0,0,0,NaN,NaN,NaN,NaN,1,0,1,0,0,23,23,23,NaN,NaN,NaN,NaN,NaN,NaN,NaN,NaN,NaN,NaN,NaN,NaN,NaN,NaN,NaN,NaN,NaN,NaN,NaN,NaN,NaN,,NaN,NaN,NaN,NaN,NaN,NaN,NaN,NaN,NaN,NaN,NaN,,,NaN,NaN,NaN,NaN,768.412705100141,768.412705100141,768.412705100141,768.412705100141,768.412705100141,1.06635802469136,1.01939350017346,ScrollDown,정답,769.440953399986,769.440953399986,769.940692200093,770.467447200092,NaN,,,,NaN,NaN,NaN,,NaN,NaN,NaN,NaN,NaN,NaN,NaN,NaN+0i,NaN+0i,NaN,NaN,NaN,NaN,11,26,남자,yes,yes,yes,yes,no,2023-04-11_10h28.30.904,Main,2022.2.4,30.0011910388905
25,넌 경솔해,5,Green,B,2.45833333333333,2.26666666666667,ScrollUp,ScrollDown,Green.png,2,Negative,Congruent,,,NaN,,,NaN,NaN,NaN,NaN,NaN,NaN,NaN,NaN,NaN,NaN,NaN,NaN,0,0,0,0,NaN,NaN,NaN,NaN,NaN,NaN,NaN,NaN,0,0,0,0,NaN,NaN,NaN,NaN,1,0,1,0,0,24,24,24,NaN,NaN,NaN,NaN,NaN,NaN,NaN,NaN,NaN,NaN,NaN,NaN,NaN,NaN,NaN,NaN,NaN,NaN,NaN,NaN,NaN,,NaN,NaN,NaN,NaN,NaN,NaN,NaN,NaN,NaN,NaN,NaN,,,NaN,NaN,NaN,NaN,770.467447200092,770.467447200092,770.467447200092,770.467447200092,770.467447200092,2,1.25391710014082,ScrollUp,정답,771.724321400048,771.724321400048,772.223903100006,772.748674100032,NaN,,,,NaN,NaN,NaN,,NaN,NaN,NaN,NaN,NaN,NaN,NaN,NaN+0i,NaN+0i,NaN,NaN,NaN,NaN,11,26,남자,yes,yes,yes,yes,no,2023-04-11_10h28.30.904,Main,2022.2.4,30.0011910388905
26,넌 초조해,4,Orange,A,2.91666666666667,3.13333333333333,ScrollDown,ScrollUp,Orange.png,2,Negative,Incongruent,,,NaN,,,NaN,NaN,NaN,NaN,NaN,NaN,NaN,NaN,NaN,NaN,NaN,NaN,0,0,0,0,NaN,NaN,NaN,NaN,NaN,NaN,NaN,NaN,0,0,0,0,NaN,NaN,NaN,NaN,1,0,1,0,0,25,25,25,NaN,NaN,NaN,NaN,NaN,NaN,NaN,NaN,NaN,NaN,NaN,NaN,NaN,NaN,NaN,NaN,NaN,NaN,NaN,NaN,NaN,,NaN,NaN,NaN,NaN,NaN,NaN,NaN,NaN,NaN,NaN,NaN,,,NaN,NaN,NaN,NaN,772.748674100032,772.748674100032,772.748674100032,772.748674100032,772.748674100032,1.06018518518519,1.44820920005441,ScrollDown,정답,774.207233099965,774.207233099965,774.707181400154,775.211686300114,NaN,,,,NaN,NaN,NaN,,NaN,NaN,NaN,NaN,NaN,NaN,NaN,NaN+0i,NaN+0i,NaN,NaN,NaN,NaN,11,26,남자,yes,yes,yes,yes,no,2023-04-11_10h28.30.904,Main,2022.2.4,30.0011910388905
27,넌 무관심해,4,Green,B,2.83333333333333,2.9,ScrollUp,ScrollDown,Green.png,2,Negative,Congruent,,,NaN,,,NaN,NaN,NaN,NaN,NaN,NaN,NaN,NaN,NaN,NaN,NaN,NaN,0,0,0,0,NaN,NaN,NaN,NaN,NaN,NaN,NaN,NaN,0,0,0,0,NaN,NaN,NaN,NaN,1,0,1,0,0,26,26,26,NaN,NaN,NaN,NaN,NaN,NaN,NaN,NaN,NaN,NaN,NaN,NaN,NaN,NaN,NaN,NaN,NaN,NaN,NaN,NaN,NaN,,NaN,NaN,NaN,NaN,NaN,NaN,NaN,NaN,NaN,NaN,NaN,,,NaN,NaN,NaN,NaN,775.211686300114,775.211686300114,775.211686300114,775.211686300114,775.211686300114,1.89506172839506,1.20113969990052,ScrollUp,정답,776.440525100101,776.440525100101,776.940854999935,777.452196900034,NaN,,,,NaN,NaN,NaN,,NaN,NaN,NaN,NaN,NaN,NaN,NaN,NaN+0i,NaN+0i,NaN,NaN,NaN,NaN,11,26,남자,yes,yes,yes,yes,no,2023-04-11_10h28.30.904,Main,2022.2.4,30.0011910388905
28,넌 감성적이야,3,Green,B,4.125,4.16666666666667,ScrollUp,ScrollDown,Green.png,2,Neutral,Neutral,,,NaN,,,NaN,NaN,NaN,NaN,NaN,NaN,NaN,NaN,NaN,NaN,NaN,NaN,0,0,0,0,NaN,NaN,NaN,NaN,NaN,NaN,NaN,NaN,0,0,0,0,NaN,NaN,NaN,NaN,1,0,1,0,0,27,27,27,NaN,NaN,NaN,NaN,NaN,NaN,NaN,NaN,NaN,NaN,NaN,NaN,NaN,NaN,NaN,NaN,NaN,NaN,NaN,NaN,NaN,,NaN,NaN,NaN,NaN,NaN,NaN,NaN,NaN,NaN,NaN,NaN,,,NaN,NaN,NaN,NaN,777.452196900034,777.452196900034,777.452196900034,777.452196900034,777.452196900034,2,1.56291169999167,ScrollUp,정답,779.040640700143,779.040640700143,779.540838400135,780.067474300042,NaN,,,,NaN,NaN,NaN,,NaN,NaN,NaN,NaN,NaN,NaN,NaN,NaN+0i,NaN+0i,NaN,NaN,NaN,NaN,11,26,남자,yes,yes,yes,yes,no,2023-04-11_10h28.30.904,Main,2022.2.4,30.0011910388905
29,넌 배려심있어,1,Orange,A,6.08333333333333,5.5,ScrollDown,ScrollUp,Orange.png,2,Positive,Congruent,,,NaN,,,NaN,NaN,NaN,NaN,NaN,NaN,NaN,NaN,NaN,NaN,NaN,NaN,0,0,0,0,NaN,NaN,NaN,NaN,NaN,NaN,NaN,NaN,0,0,0,0,NaN,NaN,NaN,NaN,1,0,1,0,0,28,28,28,NaN,NaN,NaN,NaN,NaN,NaN,NaN,NaN,NaN,NaN,NaN,NaN,NaN,NaN,NaN,NaN,NaN,NaN,NaN,NaN,NaN,,NaN,NaN,NaN,NaN,NaN,NaN,NaN,NaN,NaN,NaN,NaN,,,NaN,NaN,NaN,NaN,780.067474300042,780.067474300042,780.067474300042,780.067474300042,780.067474300042,1,0.981724199838936,ScrollDown,정답,781.057375499979,781.057375499979,781.557284800103,782.059672300005,NaN,,,,NaN,NaN,NaN,,NaN,NaN,NaN,NaN,NaN,NaN,NaN,NaN+0i,NaN+0i,NaN,NaN,NaN,NaN,11,26,남자,yes,yes,yes,yes,no,2023-04-11_10h28.30.904,Main,2022.2.4,30.0011910388905
30,넌 숨김없어,3,Orange,A,4.5,4.93333333333333,ScrollDown,ScrollUp,Orange.png,2,Neutral,Neutral,,,NaN,,,NaN,NaN,NaN,NaN,NaN,NaN,NaN,NaN,NaN,NaN,NaN,NaN,0,0,0,0,NaN,NaN,NaN,NaN,NaN,NaN,NaN,NaN,0,0,0,0,NaN,NaN,NaN,NaN,1,0,1,0,0,29,29,29,NaN,NaN,NaN,NaN,NaN,NaN,NaN,NaN,NaN,NaN,NaN,NaN,NaN,NaN,NaN,NaN,NaN,NaN,NaN,NaN,NaN,,NaN,NaN,NaN,NaN,NaN,NaN,NaN,NaN,NaN,NaN,NaN,,,NaN,NaN,NaN,NaN,782.059672300005,782.059672300005,782.059672300005,782.059672300005,782.059672300005,1,0.999184699961916,ScrollDown,정답,783.090651000151,783.090651000151,783.59086480015,784.114263999974,NaN,,,,NaN,NaN,NaN,,NaN,NaN,NaN,NaN,NaN,NaN,NaN,NaN+0i,NaN+0i,NaN,NaN,NaN,NaN,11,26,남자,yes,yes,yes,yes,no,2023-04-11_10h28.30.904,Main,2022.2.4,30.0011910388905
31,넌 훌륭해,2,Green,B,5.91666666666667,4.03333333333333,ScrollUp,ScrollDown,Green.png,2,Positive,Incongruent,,,NaN,,,NaN,NaN,NaN,NaN,NaN,NaN,NaN,NaN,NaN,NaN,NaN,NaN,0,0,0,0,NaN,NaN,NaN,NaN,NaN,NaN,NaN,NaN,0,0,0,0,NaN,NaN,NaN,NaN,1,0,1,0,0,30,30,30,NaN,NaN,NaN,NaN,NaN,NaN,NaN,NaN,NaN,NaN,NaN,NaN,NaN,NaN,NaN,NaN,NaN,NaN,NaN,NaN,NaN,,NaN,NaN,NaN,NaN,NaN,NaN,NaN,NaN,NaN,NaN,NaN,,,NaN,NaN,NaN,NaN,784.114263999974,784.114263999974,784.114263999974,784.114263999974,784.114263999974,1.89506172839506,1.11326449993066,ScrollUp,정답,785.240579300094,785.240579300094,785.740430100122,786.264996099984,NaN,,,,NaN,NaN,NaN,,NaN,NaN,NaN,NaN,NaN,NaN,NaN,NaN+0i,NaN+0i,NaN,NaN,NaN,NaN,11,26,남자,yes,yes,yes,yes,no,2023-04-11_10h28.30.904,Main,2022.2.4,30.0011910388905
32,넌 슬기로워,2,Orange,A,6.16666666666667,4.1,ScrollDown,ScrollUp,Orange.png,2,Positive,Congruent,,,NaN,,,NaN,NaN,NaN,NaN,NaN,NaN,NaN,NaN,NaN,NaN,NaN,NaN,0,0,0,0,NaN,NaN,NaN,NaN,NaN,NaN,NaN,NaN,0,0,0,0,NaN,NaN,NaN,NaN,1,0,1,0,0,31,31,31,NaN,NaN,NaN,NaN,NaN,NaN,NaN,NaN,NaN,NaN,NaN,NaN,NaN,NaN,NaN,NaN,NaN,NaN,NaN,NaN,NaN,,NaN,NaN,NaN,NaN,NaN,NaN,NaN,NaN,NaN,NaN,NaN,,,NaN,NaN,NaN,NaN,786.264996099984,786.264996099984,786.264996099984,786.264996099984,786.264996099984,1.05864197530864,1.04859969997779,ScrollDown,정답,787.323838599958,787.323838599958,787.823843900114,788.325788700022,NaN,,,,NaN,NaN,NaN,,NaN,NaN,NaN,NaN,NaN,NaN,NaN,NaN+0i,NaN+0i,NaN,NaN,NaN,NaN,11,26,남자,yes,yes,yes,yes,no,2023-04-11_10h28.30.904,Main,2022.2.4,30.0011910388905
33,넌 냉혹해,5,Orange,A,2.58333333333333,2.1,ScrollDown,ScrollUp,Orange.png,2,Negative,Incongruent,,,NaN,,,NaN,NaN,NaN,NaN,NaN,NaN,NaN,NaN,NaN,NaN,NaN,NaN,0,0,0,0,NaN,NaN,NaN,NaN,NaN,NaN,NaN,NaN,0,0,0,0,NaN,NaN,NaN,NaN,1,0,1,0,0,32,32,32,NaN,NaN,NaN,NaN,NaN,NaN,NaN,NaN,NaN,NaN,NaN,NaN,NaN,NaN,NaN,NaN,NaN,NaN,NaN,NaN,NaN,,NaN,NaN,NaN,NaN,NaN,NaN,NaN,NaN,NaN,NaN,NaN,,,NaN,NaN,NaN,NaN,788.325788700022,788.325788700022,788.325788700022,788.325788700022,788.325788700022,1.05401234567901,0.999786200001836,ScrollDown,정답,789.357558100019,789.357558100019,789.857634300133,790.365835699951,NaN,,,,NaN,NaN,NaN,,NaN,NaN,NaN,NaN,NaN,NaN,NaN,NaN+0i,NaN+0i,NaN,NaN,NaN,NaN,11,26,남자,yes,yes,yes,yes,no,2023-04-11_10h28.30.904,Main,2022.2.4,30.0011910388905
34,나를 데려가줘,6,Green,B,0,0,ScrollDown,ScrollUp,Green.png,2,NonTarget,NonTarget,,,NaN,,,NaN,NaN,NaN,NaN,NaN,NaN,NaN,NaN,NaN,NaN,NaN,NaN,0,0,0,0,NaN,NaN,NaN,NaN,NaN,NaN,NaN,NaN,0,0,0,0,NaN,NaN,NaN,NaN,1,0,1,0,0,33,33,33,NaN,NaN,NaN,NaN,NaN,NaN,NaN,NaN,NaN,NaN,NaN,NaN,NaN,NaN,NaN,NaN,NaN,NaN,NaN,NaN,NaN,,NaN,NaN,NaN,NaN,NaN,NaN,NaN,NaN,NaN,NaN,NaN,,,NaN,NaN,NaN,NaN,790.365835699951,790.365835699951,790.365835699951,790.365835699951,790.365835699951,1.03395061728395,1.13305439986289,ScrollDown,정답,791.523933199933,791.523933199933,792.02377300011,792.564396100119,NaN,,,,NaN,NaN,NaN,,NaN,NaN,NaN,NaN,NaN,NaN,NaN,NaN+0i,NaN+0i,NaN,NaN,NaN,NaN,11,26,남자,yes,yes,yes,yes,no,2023-04-11_10h28.30.904,Main,2022.2.4,30.0011910388905
35,넌 편파적이야,5,Green,B,2.125,2,ScrollUp,ScrollDown,Green.png,2,Negative,Congruent,,,NaN,,,NaN,NaN,NaN,NaN,NaN,NaN,NaN,NaN,NaN,NaN,NaN,NaN,0,0,0,0,NaN,NaN,NaN,NaN,NaN,NaN,NaN,NaN,0,0,0,0,NaN,NaN,NaN,NaN,1,0,1,0,0,34,34,34,NaN,NaN,NaN,NaN,NaN,NaN,NaN,NaN,NaN,NaN,NaN,NaN,NaN,NaN,NaN,NaN,NaN,NaN,NaN,NaN,NaN,,NaN,NaN,NaN,NaN,NaN,NaN,NaN,NaN,NaN,NaN,NaN,,,NaN,NaN,NaN,NaN,792.564396100119,792.564396100119,792.564396100119,792.564396100119,792.564396100119,2,0.976874599931762,ScrollUp,정답,793.540539399954,793.540539399954,794.040827400051,794.559530399973,NaN,,,,NaN,NaN,NaN,,NaN,NaN,NaN,NaN,NaN,NaN,NaN,NaN+0i,NaN+0i,NaN,NaN,NaN,NaN,11,26,남자,yes,yes,yes,yes,no,2023-04-11_10h28.30.904,Main,2022.2.4,30.0011910388905
36,넌 슬퍼,4,Orange,A,2.58333333333333,3.06666666666667,ScrollDown,ScrollUp,Orange.png,2,Negative,Incongruent,,,NaN,,,NaN,NaN,NaN,NaN,NaN,NaN,NaN,NaN,NaN,NaN,NaN,NaN,0,0,0,0,NaN,NaN,NaN,NaN,NaN,NaN,NaN,NaN,0,0,0,0,NaN,NaN,NaN,NaN,1,0,1,0,0,35,35,35,NaN,NaN,NaN,NaN,NaN,NaN,NaN,NaN,NaN,NaN,NaN,NaN,NaN,NaN,NaN,NaN,NaN,NaN,NaN,NaN,NaN,,NaN,NaN,NaN,NaN,NaN,NaN,NaN,NaN,NaN,NaN,NaN,,,NaN,NaN,NaN,NaN,794.559530399973,794.559530399973,794.559530399973,794.559530399973,794.559530399973,1.15740740740741,1.09698839997873,ScrollDown,정답,795.67395870015,795.67395870015,796.174319300102,796.690431999974,NaN,,,,NaN,NaN,NaN,,NaN,NaN,NaN,NaN,NaN,NaN,NaN,NaN+0i,NaN+0i,NaN,NaN,NaN,NaN,11,26,남자,yes,yes,yes,yes,no,2023-04-11_10h28.30.904,Main,2022.2.4,30.0011910388905
37,나를 데려가줘,6,Green,B,0,0,ScrollDown,ScrollUp,Green.png,2,NonTarget,NonTarget,,,NaN,,,NaN,NaN,NaN,NaN,NaN,NaN,NaN,NaN,NaN,NaN,NaN,NaN,0,0,0,0,NaN,NaN,NaN,NaN,NaN,NaN,NaN,NaN,0,0,0,0,NaN,NaN,NaN,NaN,1,0,1,0,0,36,36,36,NaN,NaN,NaN,NaN,NaN,NaN,NaN,NaN,NaN,NaN,NaN,NaN,NaN,NaN,NaN,NaN,NaN,NaN,NaN,NaN,NaN,,NaN,NaN,NaN,NaN,NaN,NaN,NaN,NaN,NaN,NaN,NaN,,,NaN,NaN,NaN,NaN,796.690431999974,796.690431999974,796.690431999974,796.690431999974,796.690431999974,1,1.23004880012013,ScrollDown,정답,797.940441299928,797.940441299928,798.440793300048,798.955204600003,NaN,,,,NaN,NaN,NaN,,NaN,NaN,NaN,NaN,NaN,NaN,NaN,NaN+0i,NaN+0i,NaN,NaN,NaN,NaN,11,26,남자,yes,yes,yes,yes,no,2023-04-11_10h28.30.904,Main,2022.2.4,30.0011910388905
38,넌 친절해,1,Green,B,6.04166666666667,5.53333333333333,ScrollUp,ScrollDown,Green.png,2,Positive,Incongruent,,,NaN,,,NaN,NaN,NaN,NaN,NaN,NaN,NaN,NaN,NaN,NaN,NaN,NaN,0,0,0,0,NaN,NaN,NaN,NaN,NaN,NaN,NaN,NaN,0,0,0,0,NaN,NaN,NaN,NaN,1,0,1,0,0,37,37,37,NaN,NaN,NaN,NaN,NaN,NaN,NaN,NaN,NaN,NaN,NaN,NaN,NaN,NaN,NaN,NaN,NaN,NaN,NaN,NaN,NaN,,NaN,NaN,NaN,NaN,NaN,NaN,NaN,NaN,NaN,NaN,NaN,,,NaN,NaN,NaN,NaN,798.955204600003,798.955204600003,798.955204600003,798.955204600003,798.955204600003,1.99228395061728,1.46569489990361,ScrollUp,정답,800.440592300147,800.440592300147,800.940593400039,801.440818500007,NaN,,,,NaN,NaN,NaN,,NaN,NaN,NaN,NaN,NaN,NaN,NaN,NaN+0i,NaN+0i,NaN,NaN,NaN,NaN,11,26,남자,yes,yes,yes,yes,no,2023-04-11_10h28.30.904,Main,2022.2.4,30.0011910388905
NaN,,NaN,,,NaN,NaN,,,,NaN,,,,,NaN,,,NaN,NaN,NaN,NaN,NaN,NaN,NaN,NaN,NaN,NaN,NaN,NaN,0,0,0,0,NaN,NaN,NaN,NaN,NaN,NaN,NaN,NaN,0,0,0,0,NaN,NaN,NaN,NaN,1,0,1,0,NaN,NaN,NaN,NaN,0,0,0,0,NaN,NaN,NaN,NaN,NaN,NaN,NaN,NaN,NaN,NaN,NaN,NaN,NaN,NaN,NaN,NaN,NaN,,NaN,NaN,NaN,NaN,NaN,NaN,NaN,NaN,NaN,NaN,NaN,,,NaN,NaN,NaN,NaN,NaN,NaN,NaN,NaN,NaN,NaN,NaN,,,NaN,NaN,NaN,NaN,3,,,,NaN,NaN,NaN,,NaN,NaN,NaN,NaN,NaN,NaN,NaN,NaN+0i,NaN+0i,NaN,NaN,NaN,NaN,11,26,남자,yes,yes,yes,yes,no,2023-04-11_10h28.30.904,Main,2022.2.4,30.0011910388905
NaN,,NaN,,,NaN,NaN,,,,NaN,,,,,NaN,,,NaN,NaN,NaN,NaN,NaN,NaN,NaN,NaN,NaN,NaN,NaN,NaN,0,0,0,0,NaN,NaN,NaN,NaN,NaN,NaN,NaN,NaN,0,0,0,0,NaN,NaN,NaN,NaN,1,0,1,0,NaN,NaN,NaN,NaN,NaN,NaN,NaN,NaN,NaN,NaN,NaN,NaN,NaN,NaN,NaN,NaN,NaN,NaN,NaN,NaN,NaN,NaN,NaN,NaN,NaN,,NaN,NaN,NaN,NaN,NaN,NaN,NaN,NaN,NaN,NaN,NaN,,,NaN,NaN,NaN,NaN,NaN,NaN,NaN,NaN,NaN,NaN,NaN,,,NaN,NaN,NaN,NaN,NaN,,,,NaN,NaN,NaN,,NaN,NaN,NaN,NaN,NaN,NaN,NaN,NaN+0i,NaN+0i,NaN,NaN,NaN,NaN,11,26,남자,yes,yes,yes,yes,no,2023-04-11_10h28.30.904,Main,2022.2.4,30.0011910388905
1,넌 엉성해,4,Orange,A,3,3.3,ScrollDown,ScrollUp,Orange.png,3,Negative,Incongruent,,,NaN,,,NaN,NaN,NaN,NaN,NaN,NaN,NaN,NaN,NaN,NaN,NaN,NaN,0,0,0,0,NaN,NaN,NaN,NaN,NaN,NaN,NaN,NaN,0,0,0,0,NaN,NaN,NaN,NaN,2,0,2,0,0,0,0,0,NaN,NaN,NaN,NaN,NaN,NaN,NaN,NaN,NaN,NaN,NaN,NaN,NaN,NaN,NaN,NaN,NaN,NaN,NaN,NaN,NaN,,NaN,NaN,NaN,NaN,NaN,NaN,NaN,NaN,NaN,NaN,NaN,,,NaN,NaN,NaN,NaN,839.952449700097,839.952449700097,839.952449700097,839.952449700097,839.952449700097,1,1.33709139982238,ScrollDown,정답,841.307326100068,841.307326100068,841.80743809999,842.312108400045,NaN,,,,NaN,NaN,NaN,,NaN,NaN,NaN,NaN,NaN,NaN,NaN,NaN+0i,NaN+0i,NaN,NaN,NaN,NaN,11,26,남자,yes,yes,yes,yes,no,2023-04-11_10h28.30.904,Main,2022.2.4,30.0011910388905
2,나를 보내줘,6,Orange,A,0,0,ScrollUp,ScrollDown,Orange.png,3,NonTarget,NonTarget,,,NaN,,,NaN,NaN,NaN,NaN,NaN,NaN,NaN,NaN,NaN,NaN,NaN,NaN,0,0,0,0,NaN,NaN,NaN,NaN,NaN,NaN,NaN,NaN,0,0,0,0,NaN,NaN,NaN,NaN,2,0,2,0,0,1,1,1,NaN,NaN,NaN,NaN,NaN,NaN,NaN,NaN,NaN,NaN,NaN,NaN,NaN,NaN,NaN,NaN,NaN,NaN,NaN,NaN,NaN,,NaN,NaN,NaN,NaN,NaN,NaN,NaN,NaN,NaN,NaN,NaN,,,NaN,NaN,NaN,NaN,842.312108400045,842.312108400045,842.312108400045,842.312108400045,842.312108400045,1.7037037037037,1.06396639999002,ScrollUp,정답,843.407535900129,843.407535900129,843.907239600085,844.432062600041,NaN,,,,NaN,NaN,NaN,,NaN,NaN,NaN,NaN,NaN,NaN,NaN,NaN+0i,NaN+0i,NaN,NaN,NaN,NaN,11,26,남자,yes,yes,yes,yes,no,2023-04-11_10h28.30.904,Main,2022.2.4,30.0011910388905
3,넌 활발해,1,Green,B,5.66666666666667,5.6,ScrollUp,ScrollDown,Green.png,3,Positive,Incongruent,,,NaN,,,NaN,NaN,NaN,NaN,NaN,NaN,NaN,NaN,NaN,NaN,NaN,NaN,0,0,0,0,NaN,NaN,NaN,NaN,NaN,NaN,NaN,NaN,0,0,0,0,NaN,NaN,NaN,NaN,2,0,2,0,0,2,2,2,NaN,NaN,NaN,NaN,NaN,NaN,NaN,NaN,NaN,NaN,NaN,NaN,NaN,NaN,NaN,NaN,NaN,NaN,NaN,NaN,NaN,,NaN,NaN,NaN,NaN,NaN,NaN,NaN,NaN,NaN,NaN,NaN,,,NaN,NaN,NaN,NaN,844.432062600041,844.432062600041,844.432062600041,844.432062600041,844.432062600041,1.80401234567901,1.28144910000265,ScrollUp,정답,845.724012400024,845.724012400024,846.224136000033,846.762038599933,NaN,,,,NaN,NaN,NaN,,NaN,NaN,NaN,NaN,NaN,NaN,NaN,NaN+0i,NaN+0i,NaN,NaN,NaN,NaN,11,26,남자,yes,yes,yes,yes,no,2023-04-11_10h28.30.904,Main,2022.2.4,30.0011910388905
4,넌 논리적이야,2,Orange,A,5.66666666666667,4.63333333333333,ScrollDown,ScrollUp,Orange.png,3,Positive,Congruent,,,NaN,,,NaN,NaN,NaN,NaN,NaN,NaN,NaN,NaN,NaN,NaN,NaN,NaN,0,0,0,0,NaN,NaN,NaN,NaN,NaN,NaN,NaN,NaN,0,0,0,0,NaN,NaN,NaN,NaN,2,0,2,0,0,3,3,3,NaN,NaN,NaN,NaN,NaN,NaN,NaN,NaN,NaN,NaN,NaN,NaN,NaN,NaN,NaN,NaN,NaN,NaN,NaN,NaN,NaN,,NaN,NaN,NaN,NaN,NaN,NaN,NaN,NaN,NaN,NaN,NaN,,,NaN,NaN,NaN,NaN,846.762038599933,846.762038599933,846.762038599933,846.762038599933,846.762038599933,1.27623456790123,1.03105159988627,ScrollDown,정답,847.790940799983,847.790940799983,848.290658100042,848.790666700108,NaN,,,,NaN,NaN,NaN,,NaN,NaN,NaN,NaN,NaN,NaN,NaN,NaN+0i,NaN+0i,NaN,NaN,NaN,NaN,11,26,남자,yes,yes,yes,yes,no,2023-04-11_10h28.30.904,Main,2022.2.4,30.0011910388905
5,넌 과묵해,3,Orange,A,3.875,4.4,ScrollDown,ScrollUp,Orange.png,3,Neutral,Neutral,,,NaN,,,NaN,NaN,NaN,NaN,NaN,NaN,NaN,NaN,NaN,NaN,NaN,NaN,0,0,0,0,NaN,NaN,NaN,NaN,NaN,NaN,NaN,NaN,0,0,0,0,NaN,NaN,NaN,NaN,2,0,2,0,0,4,4,4,NaN,NaN,NaN,NaN,NaN,NaN,NaN,NaN,NaN,NaN,NaN,NaN,NaN,NaN,NaN,NaN,NaN,NaN,NaN,NaN,NaN,,NaN,NaN,NaN,NaN,NaN,NaN,NaN,NaN,NaN,NaN,NaN,,,NaN,NaN,NaN,NaN,848.790666700108,848.790666700108,848.790666700108,848.790666700108,848.790666700108,1.0787037037037,0.871941799996421,ScrollDown,정답,849.69090980012,849.69090980012,850.190899500158,850.711779100122,NaN,,,,NaN,NaN,NaN,,NaN,NaN,NaN,NaN,NaN,NaN,NaN,NaN+0i,NaN+0i,NaN,NaN,NaN,NaN,11,26,남자,yes,yes,yes,yes,no,2023-04-11_10h28.30.904,Main,2022.2.4,30.0011910388905
6,나를 데려가줘,6,Green,B,0,0,ScrollDown,ScrollUp,Green.png,3,NonTarget,NonTarget,,,NaN,,,NaN,NaN,NaN,NaN,NaN,NaN,NaN,NaN,NaN,NaN,NaN,NaN,0,0,0,0,NaN,NaN,NaN,NaN,NaN,NaN,NaN,NaN,0,0,0,0,NaN,NaN,NaN,NaN,2,0,2,0,0,5,5,5,NaN,NaN,NaN,NaN,NaN,NaN,NaN,NaN,NaN,NaN,NaN,NaN,NaN,NaN,NaN,NaN,NaN,NaN,NaN,NaN,NaN,,NaN,NaN,NaN,NaN,NaN,NaN,NaN,NaN,NaN,NaN,NaN,,,NaN,NaN,NaN,NaN,850.711779100122,850.711779100122,850.711779100122,850.711779100122,850.711779100122,1.13271604938272,1.03218870004639,ScrollDown,정답,851.75717830006,851.75717830006,852.257171600126,852.757239100058,NaN,,,,NaN,NaN,NaN,,NaN,NaN,NaN,NaN,NaN,NaN,NaN,NaN+0i,NaN+0i,NaN,NaN,NaN,NaN,11,26,남자,yes,yes,yes,yes,no,2023-04-11_10h28.30.904,Main,2022.2.4,30.0011910388905
7,넌 미숙해,4,Green,B,3,3,ScrollUp,ScrollDown,Green.png,3,Negative,Congruent,,,NaN,,,NaN,NaN,NaN,NaN,NaN,NaN,NaN,NaN,NaN,NaN,NaN,NaN,0,0,0,0,NaN,NaN,NaN,NaN,NaN,NaN,NaN,NaN,0,0,0,0,NaN,NaN,NaN,NaN,2,0,2,0,0,6,6,6,NaN,NaN,NaN,NaN,NaN,NaN,NaN,NaN,NaN,NaN,NaN,NaN,NaN,NaN,NaN,NaN,NaN,NaN,NaN,NaN,NaN,,NaN,NaN,NaN,NaN,NaN,NaN,NaN,NaN,NaN,NaN,NaN,,,NaN,NaN,NaN,NaN,852.757239100058,852.757239100058,852.757239100058,852.757239100058,852.757239100058,1.92592592592593,0.905638600001112,ScrollUp,정답,853.690650200006,853.690650200006,854.190892399987,854.709708899958,NaN,,,,NaN,NaN,NaN,,NaN,NaN,NaN,NaN,NaN,NaN,NaN,NaN+0i,NaN+0i,NaN,NaN,NaN,NaN,11,26,남자,yes,yes,yes,yes,no,2023-04-11_10h28.30.904,Main,2022.2.4,30.0011910388905
8,나를 보내줘,6,Orange,A,0,0,ScrollUp,ScrollDown,Orange.png,3,NonTarget,NonTarget,,,NaN,,,NaN,NaN,NaN,NaN,NaN,NaN,NaN,NaN,NaN,NaN,NaN,NaN,0,0,0,0,NaN,NaN,NaN,NaN,NaN,NaN,NaN,NaN,0,0,0,0,NaN,NaN,NaN,NaN,2,0,2,0,0,7,7,7,NaN,NaN,NaN,NaN,NaN,NaN,NaN,NaN,NaN,NaN,NaN,NaN,NaN,NaN,NaN,NaN,NaN,NaN,NaN,NaN,NaN,,NaN,NaN,NaN,NaN,NaN,NaN,NaN,NaN,NaN,NaN,NaN,,,NaN,NaN,NaN,NaN,854.709708899958,854.709708899958,854.709708899958,854.709708899958,854.709708899958,1.94135802469136,1.09838370000944,ScrollUp,정답,855.824413700029,855.824413700029,856.324127699947,856.837640099926,NaN,,,,NaN,NaN,NaN,,NaN,NaN,NaN,NaN,NaN,NaN,NaN,NaN+0i,NaN+0i,NaN,NaN,NaN,NaN,11,26,남자,yes,yes,yes,yes,no,2023-04-11_10h28.30.904,Main,2022.2.4,30.0011910388905
9,넌 자신만만해,3,Green,B,4.83333333333333,4.33333333333333,ScrollUp,ScrollDown,Green.png,3,Neutral,Neutral,,,NaN,,,NaN,NaN,NaN,NaN,NaN,NaN,NaN,NaN,NaN,NaN,NaN,NaN,0,0,0,0,NaN,NaN,NaN,NaN,NaN,NaN,NaN,NaN,0,0,0,0,NaN,NaN,NaN,NaN,2,0,2,0,0,8,8,8,NaN,NaN,NaN,NaN,NaN,NaN,NaN,NaN,NaN,NaN,NaN,NaN,NaN,NaN,NaN,NaN,NaN,NaN,NaN,NaN,NaN,,NaN,NaN,NaN,NaN,NaN,NaN,NaN,NaN,NaN,NaN,NaN,,,NaN,NaN,NaN,NaN,856.837640099926,856.837640099926,856.837640099926,856.837640099926,856.837640099926,1.68364197530864,1.07087119994685,ScrollUp,정답,857.924396200106,857.924396200106,858.424464200158,858.943096600007,NaN,,,,NaN,NaN,NaN,,NaN,NaN,NaN,NaN,NaN,NaN,NaN,NaN+0i,NaN+0i,NaN,NaN,NaN,NaN,11,26,남자,yes,yes,yes,yes,no,2023-04-11_10h28.30.904,Main,2022.2.4,30.0011910388905
10,넌 탐욕스러워,5,Orange,A,2.25,2.1,ScrollDown,ScrollUp,Orange.png,3,Negative,Incongruent,,,NaN,,,NaN,NaN,NaN,NaN,NaN,NaN,NaN,NaN,NaN,NaN,NaN,NaN,0,0,0,0,NaN,NaN,NaN,NaN,NaN,NaN,NaN,NaN,0,0,0,0,NaN,NaN,NaN,NaN,2,0,2,0,0,9,9,9,NaN,NaN,NaN,NaN,NaN,NaN,NaN,NaN,NaN,NaN,NaN,NaN,NaN,NaN,NaN,NaN,NaN,NaN,NaN,NaN,NaN,,NaN,NaN,NaN,NaN,NaN,NaN,NaN,NaN,NaN,NaN,NaN,,,NaN,NaN,NaN,NaN,858.943096600007,858.943096600007,858.943096600007,858.943096600007,858.943096600007,1.20679012345679,1.43266090005636,ScrollDown,정답,860.39071800001,860.39071800001,860.891064499971,861.412521700142,NaN,,,,NaN,NaN,NaN,,NaN,NaN,NaN,NaN,NaN,NaN,NaN,NaN+0i,NaN+0i,NaN,NaN,NaN,NaN,11,26,남자,yes,yes,yes,yes,no,2023-04-11_10h28.30.904,Main,2022.2.4,30.0011910388905
11,넌 인기있어,2,Orange,A,5.45833333333333,4.5,ScrollDown,ScrollUp,Orange.png,3,Positive,Congruent,,,NaN,,,NaN,NaN,NaN,NaN,NaN,NaN,NaN,NaN,NaN,NaN,NaN,NaN,0,0,0,0,NaN,NaN,NaN,NaN,NaN,NaN,NaN,NaN,0,0,0,0,NaN,NaN,NaN,NaN,2,0,2,0,0,10,10,10,NaN,NaN,NaN,NaN,NaN,NaN,NaN,NaN,NaN,NaN,NaN,NaN,NaN,NaN,NaN,NaN,NaN,NaN,NaN,NaN,NaN,,NaN,NaN,NaN,NaN,NaN,NaN,NaN,NaN,NaN,NaN,NaN,,,NaN,NaN,NaN,NaN,861.412521700142,861.412521700142,861.412521700142,861.412521700142,861.412521700142,1.02932098765432,0.930279100080952,ScrollDown,정답,862.357266000006,862.357266000006,862.857226399938,863.361023999983,NaN,,,,NaN,NaN,NaN,,NaN,NaN,NaN,NaN,NaN,NaN,NaN,NaN+0i,NaN+0i,NaN,NaN,NaN,NaN,11,26,남자,yes,yes,yes,yes,no,2023-04-11_10h28.30.904,Main,2022.2.4,30.0011910388905
12,나를 데려가줘,6,Green,B,0,0,ScrollDown,ScrollUp,Green.png,3,NonTarget,NonTarget,,,NaN,,,NaN,NaN,NaN,NaN,NaN,NaN,NaN,NaN,NaN,NaN,NaN,NaN,0,0,0,0,NaN,NaN,NaN,NaN,NaN,NaN,NaN,NaN,0,0,0,0,NaN,NaN,NaN,NaN,2,0,2,0,0,11,11,11,NaN,NaN,NaN,NaN,NaN,NaN,NaN,NaN,NaN,NaN,NaN,NaN,NaN,NaN,NaN,NaN,NaN,NaN,NaN,NaN,NaN,,NaN,NaN,NaN,NaN,NaN,NaN,NaN,NaN,NaN,NaN,NaN,,,NaN,NaN,NaN,NaN,863.361023999983,863.361023999983,863.361023999983,863.361023999983,863.361023999983,1.14351851851852,1.00442050001584,ScrollDown,정답,864.391002200078,864.391002200078,864.890698400093,865.399661800126,NaN,,,,NaN,NaN,NaN,,NaN,NaN,NaN,NaN,NaN,NaN,NaN,NaN+0i,NaN+0i,NaN,NaN,NaN,NaN,11,26,남자,yes,yes,yes,yes,no,2023-04-11_10h28.30.904,Main,2022.2.4,30.0011910388905
13,넌 뛰어나,2,Green,B,6.16666666666667,4,ScrollUp,ScrollDown,Green.png,3,Positive,Incongruent,,,NaN,,,NaN,NaN,NaN,NaN,NaN,NaN,NaN,NaN,NaN,NaN,NaN,NaN,0,0,0,0,NaN,NaN,NaN,NaN,NaN,NaN,NaN,NaN,0,0,0,0,NaN,NaN,NaN,NaN,2,0,2,0,0,12,12,12,NaN,NaN,NaN,NaN,NaN,NaN,NaN,NaN,NaN,NaN,NaN,NaN,NaN,NaN,NaN,NaN,NaN,NaN,NaN,NaN,NaN,,NaN,NaN,NaN,NaN,NaN,NaN,NaN,NaN,NaN,NaN,NaN,,,NaN,NaN,NaN,NaN,865.399661800126,865.399661800126,865.399661800126,865.399661800126,865.399661800126,1.71450617283951,0.798490999964997,ScrollUp,정답,866.224011700135,866.224011700135,866.724465999985,867.233792399988,NaN,,,,NaN,NaN,NaN,,NaN,NaN,NaN,NaN,NaN,NaN,NaN,NaN+0i,NaN+0i,NaN,NaN,NaN,NaN,11,26,남자,yes,yes,yes,yes,no,2023-04-11_10h28.30.904,Main,2022.2.4,30.0011910388905
14,넌 낙관적이야,1,Orange,A,5.75,5.8,ScrollDown,ScrollUp,Orange.png,3,Positive,Congruent,,,NaN,,,NaN,NaN,NaN,NaN,NaN,NaN,NaN,NaN,NaN,NaN,NaN,NaN,0,0,0,0,NaN,NaN,NaN,NaN,NaN,NaN,NaN,NaN,0,0,0,0,NaN,NaN,NaN,NaN,2,0,2,0,0,13,13,13,NaN,NaN,NaN,NaN,NaN,NaN,NaN,NaN,NaN,NaN,NaN,NaN,NaN,NaN,NaN,NaN,NaN,NaN,NaN,NaN,NaN,,NaN,NaN,NaN,NaN,NaN,NaN,NaN,NaN,NaN,NaN,NaN,,,NaN,NaN,NaN,NaN,867.233792399988,867.233792399988,867.233792399988,867.233792399988,867.233792399988,1.25154320987654,0.965254400158301,ScrollDown,정답,868.223869000096,868.223869000096,868.724144699983,869.233418300049,NaN,,,,NaN,NaN,NaN,,NaN,NaN,NaN,NaN,NaN,NaN,NaN,NaN+0i,NaN+0i,NaN,NaN,NaN,NaN,11,26,남자,yes,yes,yes,yes,no,2023-04-11_10h28.30.904,Main,2022.2.4,30.0011910388905
15,넌 산만해,4,Green,B,2.69565217391304,3.03333333333333,ScrollUp,ScrollDown,Green.png,3,Negative,Congruent,,,NaN,,,NaN,NaN,NaN,NaN,NaN,NaN,NaN,NaN,NaN,NaN,NaN,NaN,0,0,0,0,NaN,NaN,NaN,NaN,NaN,NaN,NaN,NaN,0,0,0,0,NaN,NaN,NaN,NaN,2,0,2,0,0,14,14,14,NaN,NaN,NaN,NaN,NaN,NaN,NaN,NaN,NaN,NaN,NaN,NaN,NaN,NaN,NaN,NaN,NaN,NaN,NaN,NaN,NaN,,NaN,NaN,NaN,NaN,NaN,NaN,NaN,NaN,NaN,NaN,NaN,,,NaN,NaN,NaN,NaN,869.233418300049,869.233418300049,869.233418300049,869.233418300049,869.233418300049,1.82716049382716,0.998307099798694,ScrollUp,정답,870.257941999938,870.257941999938,870.757352200104,871.269044999965,NaN,,,,NaN,NaN,NaN,,NaN,NaN,NaN,NaN,NaN,NaN,NaN,NaN+0i,NaN+0i,NaN,NaN,NaN,NaN,11,26,남자,yes,yes,yes,yes,no,2023-04-11_10h28.30.904,Main,2022.2.4,30.0011910388905
16,나를 보내줘,6,Orange,A,0,0,ScrollUp,ScrollDown,Orange.png,3,NonTarget,NonTarget,,,NaN,,,NaN,NaN,NaN,NaN,NaN,NaN,NaN,NaN,NaN,NaN,NaN,NaN,0,0,0,0,NaN,NaN,NaN,NaN,NaN,NaN,NaN,NaN,0,0,0,0,NaN,NaN,NaN,NaN,2,0,2,0,0,15,15,15,NaN,NaN,NaN,NaN,NaN,NaN,NaN,NaN,NaN,NaN,NaN,NaN,NaN,NaN,NaN,NaN,NaN,NaN,NaN,NaN,NaN,,NaN,NaN,NaN,NaN,NaN,NaN,NaN,NaN,NaN,NaN,NaN,,,NaN,NaN,NaN,NaN,871.269044999965,871.269044999965,871.269044999965,871.269044999965,871.269044999965,1.91666666666667,1.40343289985321,ScrollUp,정답,872.690915799933,872.690915799933,873.190803300124,873.723136099987,NaN,,,,NaN,NaN,NaN,,NaN,NaN,NaN,NaN,NaN,NaN,NaN,NaN+0i,NaN+0i,NaN,NaN,NaN,NaN,11,26,남자,yes,yes,yes,yes,no,2023-04-11_10h28.30.904,Main,2022.2.4,30.0011910388905
17,넌 교활해,5,Green,B,2.33333333333333,2.13333333333333,ScrollUp,ScrollDown,Green.png,3,Negative,Congruent,,,NaN,,,NaN,NaN,NaN,NaN,NaN,NaN,NaN,NaN,NaN,NaN,NaN,NaN,0,0,0,0,NaN,NaN,NaN,NaN,NaN,NaN,NaN,NaN,0,0,0,0,NaN,NaN,NaN,NaN,2,0,2,0,0,16,16,16,NaN,NaN,NaN,NaN,NaN,NaN,NaN,NaN,NaN,NaN,NaN,NaN,NaN,NaN,NaN,NaN,NaN,NaN,NaN,NaN,NaN,,NaN,NaN,NaN,NaN,NaN,NaN,NaN,NaN,NaN,NaN,NaN,,,NaN,NaN,NaN,NaN,873.723136099987,873.723136099987,873.723136099987,873.723136099987,873.723136099987,1.8966049382716,1.34645120007917,ScrollUp,정답,875.073828499997,875.073828499997,875.574029700132,876.097331100143,NaN,,,,NaN,NaN,NaN,,NaN,NaN,NaN,NaN,NaN,NaN,NaN,NaN+0i,NaN+0i,NaN,NaN,NaN,NaN,11,26,남자,yes,yes,yes,yes,no,2023-04-11_10h28.30.904,Main,2022.2.4,30.0011910388905
18,나를 보내줘,6,Orange,A,0,0,ScrollUp,ScrollDown,Orange.png,3,NonTarget,NonTarget,,,NaN,,,NaN,NaN,NaN,NaN,NaN,NaN,NaN,NaN,NaN,NaN,NaN,NaN,0,0,0,0,NaN,NaN,NaN,NaN,NaN,NaN,NaN,NaN,0,0,0,0,NaN,NaN,NaN,NaN,2,0,2,0,0,17,17,17,NaN,NaN,NaN,NaN,NaN,NaN,NaN,NaN,NaN,NaN,NaN,NaN,NaN,NaN,NaN,NaN,NaN,NaN,NaN,NaN,NaN,,NaN,NaN,NaN,NaN,NaN,NaN,NaN,NaN,NaN,NaN,NaN,,,NaN,NaN,NaN,NaN,876.097331100143,876.097331100143,876.097331100143,876.097331100143,876.097331100143,1.88271604938272,1.06993829994462,ScrollUp,정답,877.174441399984,877.174441399984,877.674454400083,878.202366499929,NaN,,,,NaN,NaN,NaN,,NaN,NaN,NaN,NaN,NaN,NaN,NaN,NaN+0i,NaN+0i,NaN,NaN,NaN,NaN,11,26,남자,yes,yes,yes,yes,no,2023-04-11_10h28.30.904,Main,2022.2.4,30.0011910388905
19,넌 불친절해,5,Green,B,2.20833333333333,2.03333333333333,ScrollUp,ScrollDown,Green.png,3,Negative,Congruent,,,NaN,,,NaN,NaN,NaN,NaN,NaN,NaN,NaN,NaN,NaN,NaN,NaN,NaN,0,0,0,0,NaN,NaN,NaN,NaN,NaN,NaN,NaN,NaN,0,0,0,0,NaN,NaN,NaN,NaN,2,0,2,0,0,18,18,18,NaN,NaN,NaN,NaN,NaN,NaN,NaN,NaN,NaN,NaN,NaN,NaN,NaN,NaN,NaN,NaN,NaN,NaN,NaN,NaN,NaN,,NaN,NaN,NaN,NaN,NaN,NaN,NaN,NaN,NaN,NaN,NaN,,,NaN,NaN,NaN,NaN,878.202366499929,878.202366499929,878.202366499929,878.202366499929,878.202366499929,1.54783950617284,1.87954639992677,NoResponse,무응답,880.090542800026,880.090542800026,880.591342899948,881.092282500118,NaN,,,,NaN,NaN,NaN,,NaN,NaN,NaN,NaN,NaN,NaN,NaN,NaN+0i,NaN+0i,NaN,NaN,NaN,NaN,11,26,남자,yes,yes,yes,yes,no,2023-04-11_10h28.30.904,Main,2022.2.4,30.0011910388905
20,넌 지적이야,2,Green,B,5.75,4.36666666666667,ScrollUp,ScrollDown,Green.png,3,Positive,Incongruent,,,NaN,,,NaN,NaN,NaN,NaN,NaN,NaN,NaN,NaN,NaN,NaN,NaN,NaN,0,0,0,0,NaN,NaN,NaN,NaN,NaN,NaN,NaN,NaN,0,0,0,0,NaN,NaN,NaN,NaN,2,0,2,0,0,19,19,19,NaN,NaN,NaN,NaN,NaN,NaN,NaN,NaN,NaN,NaN,NaN,NaN,NaN,NaN,NaN,NaN,NaN,NaN,NaN,NaN,NaN,,NaN,NaN,NaN,NaN,NaN,NaN,NaN,NaN,NaN,NaN,NaN,,,NaN,NaN,NaN,NaN,881.092282500118,881.092282500118,881.092282500118,881.092282500118,881.092282500118,1.60493827160494,1.0658134999685,ScrollUp,정답,882.190702500055,882.190702500055,882.690576800145,883.213840899989,NaN,,,,NaN,NaN,NaN,,NaN,NaN,NaN,NaN,NaN,NaN,NaN,NaN+0i,NaN+0i,NaN,NaN,NaN,NaN,11,26,남자,yes,yes,yes,yes,no,2023-04-11_10h28.30.904,Main,2022.2.4,30.0011910388905
21,넌 우유부단해,4,Orange,A,2.66666666666667,3.16666666666667,ScrollDown,ScrollUp,Orange.png,3,Negative,Incongruent,,,NaN,,,NaN,NaN,NaN,NaN,NaN,NaN,NaN,NaN,NaN,NaN,NaN,NaN,0,0,0,0,NaN,NaN,NaN,NaN,NaN,NaN,NaN,NaN,0,0,0,0,NaN,NaN,NaN,NaN,2,0,2,0,0,20,20,20,NaN,NaN,NaN,NaN,NaN,NaN,NaN,NaN,NaN,NaN,NaN,NaN,NaN,NaN,NaN,NaN,NaN,NaN,NaN,NaN,NaN,,NaN,NaN,NaN,NaN,NaN,NaN,NaN,NaN,NaN,NaN,NaN,,,NaN,NaN,NaN,NaN,883.213840899989,883.213840899989,883.213840899989,883.213840899989,883.213840899989,1.17746913580247,0.913805999793112,ScrollDown,정답,884.140722499928,884.140722499928,884.640954500064,885.154752800008,NaN,,,,NaN,NaN,NaN,,NaN,NaN,NaN,NaN,NaN,NaN,NaN,NaN+0i,NaN+0i,NaN,NaN,NaN,NaN,11,26,남자,yes,yes,yes,yes,no,2023-04-11_10h28.30.904,Main,2022.2.4,30.0011910388905
22,나를 데려가줘,6,Green,B,0,0,ScrollDown,ScrollUp,Green.png,3,NonTarget,NonTarget,,,NaN,,,NaN,NaN,NaN,NaN,NaN,NaN,NaN,NaN,NaN,NaN,NaN,NaN,0,0,0,0,NaN,NaN,NaN,NaN,NaN,NaN,NaN,NaN,0,0,0,0,NaN,NaN,NaN,NaN,2,0,2,0,0,21,21,21,NaN,NaN,NaN,NaN,NaN,NaN,NaN,NaN,NaN,NaN,NaN,NaN,NaN,NaN,NaN,NaN,NaN,NaN,NaN,NaN,NaN,,NaN,NaN,NaN,NaN,NaN,NaN,NaN,NaN,NaN,NaN,NaN,,,NaN,NaN,NaN,NaN,885.154752800008,885.154752800008,885.154752800008,885.154752800008,885.154752800008,1.22530864197531,1.06961190002039,ScrollDown,정답,886.241154199932,886.241154199932,886.741524500074,887.255832199939,NaN,,,,NaN,NaN,NaN,,NaN,NaN,NaN,NaN,NaN,NaN,NaN,NaN+0i,NaN+0i,NaN,NaN,NaN,NaN,11,26,남자,yes,yes,yes,yes,no,2023-04-11_10h28.30.904,Main,2022.2.4,30.0011910388905
23,넌 성실해,1,Green,B,6.04166666666667,5.7,ScrollUp,ScrollDown,Green.png,3,Positive,Incongruent,,,NaN,,,NaN,NaN,NaN,NaN,NaN,NaN,NaN,NaN,NaN,NaN,NaN,NaN,0,0,0,0,NaN,NaN,NaN,NaN,NaN,NaN,NaN,NaN,0,0,0,0,NaN,NaN,NaN,NaN,2,0,2,0,0,22,22,22,NaN,NaN,NaN,NaN,NaN,NaN,NaN,NaN,NaN,NaN,NaN,NaN,NaN,NaN,NaN,NaN,NaN,NaN,NaN,NaN,NaN,,NaN,NaN,NaN,NaN,NaN,NaN,NaN,NaN,NaN,NaN,NaN,,,NaN,NaN,NaN,NaN,887.255832199939,887.255832199939,887.255832199939,887.255832199939,887.255832199939,1.89506172839506,1.06120770005509,ScrollUp,정답,888.340705499984,888.340705499984,888.84071359993,889.349762300029,NaN,,,,NaN,NaN,NaN,,NaN,NaN,NaN,NaN,NaN,NaN,NaN,NaN+0i,NaN+0i,NaN,NaN,NaN,NaN,11,26,남자,yes,yes,yes,yes,no,2023-04-11_10h28.30.904,Main,2022.2.4,30.0011910388905
24,넌 현실주의적이야,3,Orange,A,4.625,4.4,ScrollDown,ScrollUp,Orange.png,3,Neutral,Neutral,,,NaN,,,NaN,NaN,NaN,NaN,NaN,NaN,NaN,NaN,NaN,NaN,NaN,NaN,0,0,0,0,NaN,NaN,NaN,NaN,NaN,NaN,NaN,NaN,0,0,0,0,NaN,NaN,NaN,NaN,2,0,2,0,0,23,23,23,NaN,NaN,NaN,NaN,NaN,NaN,NaN,NaN,NaN,NaN,NaN,NaN,NaN,NaN,NaN,NaN,NaN,NaN,NaN,NaN,NaN,,NaN,NaN,NaN,NaN,NaN,NaN,NaN,NaN,NaN,NaN,NaN,,,NaN,NaN,NaN,NaN,889.349762300029,889.349762300029,889.349762300029,889.349762300029,889.349762300029,1.26234567901235,1.29869120009243,ScrollDown,정답,890.673930400051,890.673930400051,891.174218400149,891.687501500128,NaN,,,,NaN,NaN,NaN,,NaN,NaN,NaN,NaN,NaN,NaN,NaN,NaN+0i,NaN+0i,NaN,NaN,NaN,NaN,11,26,남자,yes,yes,yes,yes,no,2023-04-11_10h28.30.904,Main,2022.2.4,30.0011910388905
25,넌 진실돼,1,Orange,A,6.625,5.56666666666667,ScrollDown,ScrollUp,Orange.png,3,Positive,Congruent,,,NaN,,,NaN,NaN,NaN,NaN,NaN,NaN,NaN,NaN,NaN,NaN,NaN,NaN,0,0,0,0,NaN,NaN,NaN,NaN,NaN,NaN,NaN,NaN,0,0,0,0,NaN,NaN,NaN,NaN,2,0,2,0,0,24,24,24,NaN,NaN,NaN,NaN,NaN,NaN,NaN,NaN,NaN,NaN,NaN,NaN,NaN,NaN,NaN,NaN,NaN,NaN,NaN,NaN,NaN,,NaN,NaN,NaN,NaN,NaN,NaN,NaN,NaN,NaN,NaN,NaN,,,NaN,NaN,NaN,NaN,891.687501500128,891.687501500128,891.687501500128,891.687501500128,891.687501500128,1.22685185185185,1.03610059991479,ScrollDown,정답,892.740691500017,892.740691500017,893.240798100131,893.747762100073,NaN,,,,NaN,NaN,NaN,,NaN,NaN,NaN,NaN,NaN,NaN,NaN,NaN+0i,NaN+0i,NaN,NaN,NaN,NaN,11,26,남자,yes,yes,yes,yes,no,2023-04-11_10h28.30.904,Main,2022.2.4,30.0011910388905
26,넌 천진난만해,3,Green,B,4.95833333333333,4.83333333333333,ScrollUp,ScrollDown,Green.png,3,Neutral,Neutral,,,NaN,,,NaN,NaN,NaN,NaN,NaN,NaN,NaN,NaN,NaN,NaN,NaN,NaN,0,0,0,0,NaN,NaN,NaN,NaN,NaN,NaN,NaN,NaN,0,0,0,0,NaN,NaN,NaN,NaN,2,0,2,0,0,25,25,25,NaN,NaN,NaN,NaN,NaN,NaN,NaN,NaN,NaN,NaN,NaN,NaN,NaN,NaN,NaN,NaN,NaN,NaN,NaN,NaN,NaN,,NaN,NaN,NaN,NaN,NaN,NaN,NaN,NaN,NaN,NaN,NaN,,,NaN,NaN,NaN,NaN,893.747762100073,893.747762100073,893.747762100073,893.747762100073,893.747762100073,1.79320987654321,0.871715699788183,ScrollUp,정답,894.641015300062,894.641015300062,895.141114100115,895.643432599958,NaN,,,,NaN,NaN,NaN,,NaN,NaN,NaN,NaN,NaN,NaN,NaN,NaN+0i,NaN+0i,NaN,NaN,NaN,NaN,11,26,남자,yes,yes,yes,yes,no,2023-04-11_10h28.30.904,Main,2022.2.4,30.0011910388905
27,넌 교양없어,5,Orange,A,2.41666666666667,2.2,ScrollDown,ScrollUp,Orange.png,3,Negative,Incongruent,,,NaN,,,NaN,NaN,NaN,NaN,NaN,NaN,NaN,NaN,NaN,NaN,NaN,NaN,0,0,0,0,NaN,NaN,NaN,NaN,NaN,NaN,NaN,NaN,0,0,0,0,NaN,NaN,NaN,NaN,2,0,2,0,0,26,26,26,NaN,NaN,NaN,NaN,NaN,NaN,NaN,NaN,NaN,NaN,NaN,NaN,NaN,NaN,NaN,NaN,NaN,NaN,NaN,NaN,NaN,,NaN,NaN,NaN,NaN,NaN,NaN,NaN,NaN,NaN,NaN,NaN,,,NaN,NaN,NaN,NaN,895.643432599958,895.643432599958,895.643432599958,895.643432599958,895.643432599958,1.17592592592593,1.06649510003626,ScrollDown,정답,896.740708300145,896.740708300145,897.240865699947,897.745610400103,NaN,,,,NaN,NaN,NaN,,NaN,NaN,NaN,NaN,NaN,NaN,NaN,NaN+0i,NaN+0i,NaN,NaN,NaN,NaN,11,26,남자,yes,yes,yes,yes,no,2023-04-11_10h28.30.904,Main,2022.2.4,30.0011910388905
28,나를 보내줘,6,Orange,A,0,0,ScrollUp,ScrollDown,Orange.png,3,NonTarget,NonTarget,,,NaN,,,NaN,NaN,NaN,NaN,NaN,NaN,NaN,NaN,NaN,NaN,NaN,NaN,0,0,0,0,NaN,NaN,NaN,NaN,NaN,NaN,NaN,NaN,0,0,0,0,NaN,NaN,NaN,NaN,2,0,2,0,0,27,27,27,NaN,NaN,NaN,NaN,NaN,NaN,NaN,NaN,NaN,NaN,NaN,NaN,NaN,NaN,NaN,NaN,NaN,NaN,NaN,NaN,NaN,,NaN,NaN,NaN,NaN,NaN,NaN,NaN,NaN,NaN,NaN,NaN,,,NaN,NaN,NaN,NaN,897.745610400103,897.745610400103,897.745610400103,897.745610400103,897.745610400103,1.85030864197531,0.869682599790394,ScrollUp,정답,898.640386400046,898.640386400046,899.140582400141,899.640644400148,NaN,,,,NaN,NaN,NaN,,NaN,NaN,NaN,NaN,NaN,NaN,NaN,NaN+0i,NaN+0i,NaN,NaN,NaN,NaN,11,26,남자,yes,yes,yes,yes,no,2023-04-11_10h28.30.904,Main,2022.2.4,30.0011910388905
29,넌 엉뚱스러워,3,Orange,A,4.16666666666667,4.13333333333333,ScrollDown,ScrollUp,Orange.png,3,Neutral,Neutral,,,NaN,,,NaN,NaN,NaN,NaN,NaN,NaN,NaN,NaN,NaN,NaN,NaN,NaN,0,0,0,0,NaN,NaN,NaN,NaN,NaN,NaN,NaN,NaN,0,0,0,0,NaN,NaN,NaN,NaN,2,0,2,0,0,28,28,28,NaN,NaN,NaN,NaN,NaN,NaN,NaN,NaN,NaN,NaN,NaN,NaN,NaN,NaN,NaN,NaN,NaN,NaN,NaN,NaN,NaN,,NaN,NaN,NaN,NaN,NaN,NaN,NaN,NaN,NaN,NaN,NaN,,,NaN,NaN,NaN,NaN,899.640644400148,899.640644400148,899.640644400148,899.640644400148,899.640644400148,1.01851851851852,1.09998030005954,ScrollDown,정답,900.774327200139,900.774327200139,901.273914600024,901.781579500064,NaN,,,,NaN,NaN,NaN,,NaN,NaN,NaN,NaN,NaN,NaN,NaN,NaN+0i,NaN+0i,NaN,NaN,NaN,NaN,11,26,남자,yes,yes,yes,yes,no,2023-04-11_10h28.30.904,Main,2022.2.4,30.0011910388905
30,넌 무지해,4,Green,B,2.54166666666667,3.06666666666667,ScrollUp,ScrollDown,Green.png,3,Negative,Congruent,,,NaN,,,NaN,NaN,NaN,NaN,NaN,NaN,NaN,NaN,NaN,NaN,NaN,NaN,0,0,0,0,NaN,NaN,NaN,NaN,NaN,NaN,NaN,NaN,0,0,0,0,NaN,NaN,NaN,NaN,2,0,2,0,0,29,29,29,NaN,NaN,NaN,NaN,NaN,NaN,NaN,NaN,NaN,NaN,NaN,NaN,NaN,NaN,NaN,NaN,NaN,NaN,NaN,NaN,NaN,,NaN,NaN,NaN,NaN,NaN,NaN,NaN,NaN,NaN,NaN,NaN,,,NaN,NaN,NaN,NaN,901.781579500064,901.781579500064,901.781579500064,901.781579500064,901.781579500064,1.73611111111111,0.765963500132784,ScrollUp,정답,902.573973200051,902.573973200051,903.074339800049,903.57957400009,NaN,,,,NaN,NaN,NaN,,NaN,NaN,NaN,NaN,NaN,NaN,NaN,NaN+0i,NaN+0i,NaN,NaN,NaN,NaN,11,26,남자,yes,yes,yes,yes,no,2023-04-11_10h28.30.904,Main,2022.2.4,30.0011910388905
31,넌 음울해,5,Green,B,2.25,2.23333333333333,ScrollUp,ScrollDown,Green.png,3,Negative,Congruent,,,NaN,,,NaN,NaN,NaN,NaN,NaN,NaN,NaN,NaN,NaN,NaN,NaN,NaN,0,0,0,0,NaN,NaN,NaN,NaN,NaN,NaN,NaN,NaN,0,0,0,0,NaN,NaN,NaN,NaN,2,0,2,0,0,30,30,30,NaN,NaN,NaN,NaN,NaN,NaN,NaN,NaN,NaN,NaN,NaN,NaN,NaN,NaN,NaN,NaN,NaN,NaN,NaN,NaN,NaN,,NaN,NaN,NaN,NaN,NaN,NaN,NaN,NaN,NaN,NaN,NaN,,,NaN,NaN,NaN,NaN,903.57957400009,903.57957400009,903.57957400009,903.57957400009,903.57957400009,1.84104938271605,0.999158499995247,ScrollUp,정답,904.607377000153,904.607377000153,905.107596900081,905.641938500106,NaN,,,,NaN,NaN,NaN,,NaN,NaN,NaN,NaN,NaN,NaN,NaN,NaN+0i,NaN+0i,NaN,NaN,NaN,NaN,11,26,남자,yes,yes,yes,yes,no,2023-04-11_10h28.30.904,Main,2022.2.4,30.0011910388905
32,넌 냉소적이야,5,Orange,A,2.91666666666667,2.4,ScrollDown,ScrollUp,Orange.png,3,Negative,Incongruent,,,NaN,,,NaN,NaN,NaN,NaN,NaN,NaN,NaN,NaN,NaN,NaN,NaN,NaN,0,0,0,0,NaN,NaN,NaN,NaN,NaN,NaN,NaN,NaN,0,0,0,0,NaN,NaN,NaN,NaN,2,0,2,0,0,31,31,31,NaN,NaN,NaN,NaN,NaN,NaN,NaN,NaN,NaN,NaN,NaN,NaN,NaN,NaN,NaN,NaN,NaN,NaN,NaN,NaN,NaN,,NaN,NaN,NaN,NaN,NaN,NaN,NaN,NaN,NaN,NaN,NaN,,,NaN,NaN,NaN,NaN,905.641938500106,905.641938500106,905.641938500106,905.641938500106,905.641938500106,1.17283950617284,1.04766030004248,ScrollDown,정답,906.690710900119,906.690710900119,907.191090800101,907.71754660015,NaN,,,,NaN,NaN,NaN,,NaN,NaN,NaN,NaN,NaN,NaN,NaN,NaN+0i,NaN+0i,NaN,NaN,NaN,NaN,11,26,남자,yes,yes,yes,yes,no,2023-04-11_10h28.30.904,Main,2022.2.4,30.0011910388905
33,나를 데려가줘,6,Green,B,0,0,ScrollDown,ScrollUp,Green.png,3,NonTarget,NonTarget,,,NaN,,,NaN,NaN,NaN,NaN,NaN,NaN,NaN,NaN,NaN,NaN,NaN,NaN,0,0,0,0,NaN,NaN,NaN,NaN,NaN,NaN,NaN,NaN,0,0,0,0,NaN,NaN,NaN,NaN,2,0,2,0,0,32,32,32,NaN,NaN,NaN,NaN,NaN,NaN,NaN,NaN,NaN,NaN,NaN,NaN,NaN,NaN,NaN,NaN,NaN,NaN,NaN,NaN,NaN,,NaN,NaN,NaN,NaN,NaN,NaN,NaN,NaN,NaN,NaN,NaN,,,NaN,NaN,NaN,NaN,907.71754660015,907.71754660015,907.71754660015,907.71754660015,907.71754660015,1.05864197530864,1.01385119999759,ScrollDown,정답,908.741055499995,908.741055499995,909.24067570013,909.746560700005,NaN,,,,NaN,NaN,NaN,,NaN,NaN,NaN,NaN,NaN,NaN,NaN,NaN+0i,NaN+0i,NaN,NaN,NaN,NaN,11,26,남자,yes,yes,yes,yes,no,2023-04-11_10h28.30.904,Main,2022.2.4,30.0011910388905
34,넌 쾌활해,1,Orange,A,5.54166666666667,5.73333333333333,ScrollDown,ScrollUp,Orange.png,3,Positive,Congruent,,,NaN,,,NaN,NaN,NaN,NaN,NaN,NaN,NaN,NaN,NaN,NaN,NaN,NaN,0,0,0,0,NaN,NaN,NaN,NaN,NaN,NaN,NaN,NaN,0,0,0,0,NaN,NaN,NaN,NaN,2,0,2,0,0,33,33,33,NaN,NaN,NaN,NaN,NaN,NaN,NaN,NaN,NaN,NaN,NaN,NaN,NaN,NaN,NaN,NaN,NaN,NaN,NaN,NaN,NaN,,NaN,NaN,NaN,NaN,NaN,NaN,NaN,NaN,NaN,NaN,NaN,,,NaN,NaN,NaN,NaN,909.746560700005,909.746560700005,909.746560700005,909.746560700005,909.746560700005,1.17283950617284,0.933632199885324,ScrollDown,정답,910.707621400012,910.707621400012,911.207680300111,911.709331599995,NaN,,,,NaN,NaN,NaN,,NaN,NaN,NaN,NaN,NaN,NaN,NaN,NaN+0i,NaN+0i,NaN,NaN,NaN,NaN,11,26,남자,yes,yes,yes,yes,no,2023-04-11_10h28.30.904,Main,2022.2.4,30.0011910388905
35,나를 보내줘,6,Orange,A,0,0,ScrollUp,ScrollDown,Orange.png,3,NonTarget,NonTarget,,,NaN,,,NaN,NaN,NaN,NaN,NaN,NaN,NaN,NaN,NaN,NaN,NaN,NaN,0,0,0,0,NaN,NaN,NaN,NaN,NaN,NaN,NaN,NaN,0,0,0,0,NaN,NaN,NaN,NaN,2,0,2,0,0,34,34,34,NaN,NaN,NaN,NaN,NaN,NaN,NaN,NaN,NaN,NaN,NaN,NaN,NaN,NaN,NaN,NaN,NaN,NaN,NaN,NaN,NaN,,NaN,NaN,NaN,NaN,NaN,NaN,NaN,NaN,NaN,NaN,NaN,,,NaN,NaN,NaN,NaN,911.709331599995,911.709331599995,911.709331599995,911.709331599995,911.709331599995,1.95679012345679,0.8986016002018,ScrollUp,정답,912.6405944,912.6405944,913.140864999965,913.647838799981,NaN,,,,NaN,NaN,NaN,,NaN,NaN,NaN,NaN,NaN,NaN,NaN,NaN+0i,NaN+0i,NaN,NaN,NaN,NaN,11,26,남자,yes,yes,yes,yes,no,2023-04-11_10h28.30.904,Main,2022.2.4,30.0011910388905
36,넌 명랑해,1,Green,B,5.73913043478261,5.66666666666667,ScrollUp,ScrollDown,Green.png,3,Positive,Incongruent,,,NaN,,,NaN,NaN,NaN,NaN,NaN,NaN,NaN,NaN,NaN,NaN,NaN,NaN,0,0,0,0,NaN,NaN,NaN,NaN,NaN,NaN,NaN,NaN,0,0,0,0,NaN,NaN,NaN,NaN,2,0,2,0,0,35,35,35,NaN,NaN,NaN,NaN,NaN,NaN,NaN,NaN,NaN,NaN,NaN,NaN,NaN,NaN,NaN,NaN,NaN,NaN,NaN,NaN,NaN,,NaN,NaN,NaN,NaN,NaN,NaN,NaN,NaN,NaN,NaN,NaN,,,NaN,NaN,NaN,NaN,913.647838799981,913.647838799981,913.647838799981,913.647838799981,913.647838799981,1.84567901234568,0.899806200060993,ScrollUp,정답,914.574090600014,914.574090600014,915.07442119997,915.604981299955,NaN,,,,NaN,NaN,NaN,,NaN,NaN,NaN,NaN,NaN,NaN,NaN,NaN+0i,NaN+0i,NaN,NaN,NaN,NaN,11,26,남자,yes,yes,yes,yes,no,2023-04-11_10h28.30.904,Main,2022.2.4,30.0011910388905
37,넌 멍해,4,Orange,A,2.83333333333333,3.4,ScrollDown,ScrollUp,Orange.png,3,Negative,Incongruent,,,NaN,,,NaN,NaN,NaN,NaN,NaN,NaN,NaN,NaN,NaN,NaN,NaN,NaN,0,0,0,0,NaN,NaN,NaN,NaN,NaN,NaN,NaN,NaN,0,0,0,0,NaN,NaN,NaN,NaN,2,0,2,0,0,36,36,36,NaN,NaN,NaN,NaN,NaN,NaN,NaN,NaN,NaN,NaN,NaN,NaN,NaN,NaN,NaN,NaN,NaN,NaN,NaN,NaN,NaN,,NaN,NaN,NaN,NaN,NaN,NaN,NaN,NaN,NaN,NaN,NaN,,,NaN,NaN,NaN,NaN,915.604981299955,915.604981299955,915.604981299955,915.604981299955,915.604981299955,1.1033950617284,0.920227200025693,ScrollDown,정답,916.524586600019,916.524586600019,917.02455410012,917.550210100133,NaN,,,,NaN,NaN,NaN,,NaN,NaN,NaN,NaN,NaN,NaN,NaN,NaN+0i,NaN+0i,NaN,NaN,NaN,NaN,11,26,남자,yes,yes,yes,yes,no,2023-04-11_10h28.30.904,Main,2022.2.4,30.0011910388905
38,나를 데려가줘,6,Green,B,0,0,ScrollDown,ScrollUp,Green.png,3,NonTarget,NonTarget,,,NaN,,,NaN,NaN,NaN,NaN,NaN,NaN,NaN,NaN,NaN,NaN,NaN,NaN,0,0,0,0,NaN,NaN,NaN,NaN,NaN,NaN,NaN,NaN,0,0,0,0,NaN,NaN,NaN,NaN,2,0,2,0,0,37,37,37,NaN,NaN,NaN,NaN,NaN,NaN,NaN,NaN,NaN,NaN,NaN,NaN,NaN,NaN,NaN,NaN,NaN,NaN,NaN,NaN,NaN,,NaN,NaN,NaN,NaN,NaN,NaN,NaN,NaN,NaN,NaN,NaN,,,NaN,NaN,NaN,NaN,917.550210100133,917.550210100133,917.550210100133,917.550210100133,917.550210100133,1.2283950617284,0.914728899952024,ScrollDown,정답,918.474107000045,918.474107000045,918.974056000123,919.476545399986,NaN,,,,NaN,NaN,NaN,,NaN,NaN,NaN,NaN,NaN,NaN,NaN,NaN+0i,NaN+0i,NaN,NaN,NaN,NaN,11,26,남자,yes,yes,yes,yes,no,2023-04-11_10h28.30.904,Main,2022.2.4,30.0011910388905
39,넌 현명해,2,Orange,A,6.54166666666667,4.53333333333333,ScrollDown,ScrollUp,Orange.png,3,Positive,Congruent,,,NaN,,,NaN,NaN,NaN,NaN,NaN,NaN,NaN,NaN,NaN,NaN,NaN,NaN,0,0,0,0,NaN,NaN,NaN,NaN,NaN,NaN,NaN,NaN,0,0,0,0,NaN,NaN,NaN,NaN,2,0,2,0,0,38,38,38,NaN,NaN,NaN,NaN,NaN,NaN,NaN,NaN,NaN,NaN,NaN,NaN,NaN,NaN,NaN,NaN,NaN,NaN,NaN,NaN,NaN,,NaN,NaN,NaN,NaN,NaN,NaN,NaN,NaN,NaN,NaN,NaN,,,NaN,NaN,NaN,NaN,919.476545399986,919.476545399986,919.476545399986,919.476545399986,919.476545399986,1.1712962962963,1.09984899987467,ScrollDown,정답,920.607260900084,920.607260900084,921.10725650005,921.613494500052,NaN,,,,NaN,NaN,NaN,,NaN,NaN,NaN,NaN,NaN,NaN,NaN,NaN+0i,NaN+0i,NaN,NaN,NaN,NaN,11,26,남자,yes,yes,yes,yes,no,2023-04-11_10h28.30.904,Main,2022.2.4,30.0011910388905
40,넌 수줍어,3,Green,B,3.54166666666667,4.36666666666667,ScrollUp,ScrollDown,Green.png,3,Neutral,Neutral,,,NaN,,,NaN,NaN,NaN,NaN,NaN,NaN,NaN,NaN,NaN,NaN,NaN,NaN,0,0,0,0,NaN,NaN,NaN,NaN,NaN,NaN,NaN,NaN,0,0,0,0,NaN,NaN,NaN,NaN,2,0,2,0,0,39,39,39,NaN,NaN,NaN,NaN,NaN,NaN,NaN,NaN,NaN,NaN,NaN,NaN,NaN,NaN,NaN,NaN,NaN,NaN,NaN,NaN,NaN,,NaN,NaN,NaN,NaN,NaN,NaN,NaN,NaN,NaN,NaN,NaN,,,NaN,NaN,NaN,NaN,921.613494500052,921.613494500052,921.613494500052,921.613494500052,921.613494500052,1.84567901234568,0.905226700007915,ScrollUp,정답,922.541032199981,922.541032199981,923.040954400087,923.542582600145,NaN,,,,NaN,NaN,NaN,,NaN,NaN,NaN,NaN,NaN,NaN,NaN,NaN+0i,NaN+0i,NaN,NaN,NaN,NaN,11,26,남자,yes,yes,yes,yes,no,2023-04-11_10h28.30.904,Main,2022.2.4,30.0011910388905
41,나를 데려가줘,6,Green,B,0,0,ScrollDown,ScrollUp,Green.png,3,NonTarget,NonTarget,,,NaN,,,NaN,NaN,NaN,NaN,NaN,NaN,NaN,NaN,NaN,NaN,NaN,NaN,0,0,0,0,NaN,NaN,NaN,NaN,NaN,NaN,NaN,NaN,0,0,0,0,NaN,NaN,NaN,NaN,2,0,2,0,0,40,40,40,NaN,NaN,NaN,NaN,NaN,NaN,NaN,NaN,NaN,NaN,NaN,NaN,NaN,NaN,NaN,NaN,NaN,NaN,NaN,NaN,NaN,,NaN,NaN,NaN,NaN,NaN,NaN,NaN,NaN,NaN,NaN,NaN,,,NaN,NaN,NaN,NaN,923.542582600145,923.542582600145,923.542582600145,923.542582600145,923.542582600145,1.10493827160494,1.00560769997537,ScrollDown,정답,924.574559499975,924.574559499975,925.074482100084,925.576747599989,NaN,,,,NaN,NaN,NaN,,NaN,NaN,NaN,NaN,NaN,NaN,NaN,NaN+0i,NaN+0i,NaN,NaN,NaN,NaN,11,26,남자,yes,yes,yes,yes,no,2023-04-11_10h28.30.904,Main,2022.2.4,30.0011910388905
42,넌 성숙해,2,Green,B,5.83333333333333,4.53333333333333,ScrollUp,ScrollDown,Green.png,3,Positive,Incongruent,,,NaN,,,NaN,NaN,NaN,NaN,NaN,NaN,NaN,NaN,NaN,NaN,NaN,NaN,0,0,0,0,NaN,NaN,NaN,NaN,NaN,NaN,NaN,NaN,0,0,0,0,NaN,NaN,NaN,NaN,2,0,2,0,0,41,41,41,NaN,NaN,NaN,NaN,NaN,NaN,NaN,NaN,NaN,NaN,NaN,NaN,NaN,NaN,NaN,NaN,NaN,NaN,NaN,NaN,NaN,,NaN,NaN,NaN,NaN,NaN,NaN,NaN,NaN,NaN,NaN,NaN,,,NaN,NaN,NaN,NaN,925.576747599989,925.576747599989,925.576747599989,925.576747599989,925.576747599989,1.74691358024691,0.866080699954182,ScrollUp,정답,926.474111400079,926.474111400079,926.974337500054,927.474225800019,NaN,,,,NaN,NaN,NaN,,NaN,NaN,NaN,NaN,NaN,NaN,NaN,NaN+0i,NaN+0i,NaN,NaN,NaN,NaN,11,26,남자,yes,yes,yes,yes,no,2023-04-11_10h28.30.904,Main,2022.2.4,30.0011910388905
NaN,,NaN,,,NaN,NaN,,,,NaN,,,,,NaN,,,NaN,NaN,NaN,NaN,NaN,NaN,NaN,NaN,NaN,NaN,NaN,NaN,0,0,0,0,NaN,NaN,NaN,NaN,NaN,NaN,NaN,NaN,0,0,0,0,NaN,NaN,NaN,NaN,2,0,2,0,NaN,NaN,NaN,NaN,NaN,NaN,NaN,NaN,NaN,NaN,NaN,NaN,NaN,NaN,NaN,NaN,NaN,NaN,NaN,NaN,NaN,NaN,NaN,NaN,NaN,,NaN,NaN,NaN,NaN,NaN,NaN,NaN,NaN,NaN,NaN,NaN,,,NaN,NaN,NaN,NaN,NaN,NaN,NaN,NaN,NaN,NaN,NaN,,,NaN,NaN,NaN,NaN,4,,,,NaN,NaN,NaN,,NaN,NaN,NaN,NaN,NaN,NaN,NaN,NaN+0i,NaN+0i,NaN,NaN,NaN,NaN,11,26,남자,yes,yes,yes,yes,no,2023-04-11_10h28.30.904,Main,2022.2.4,30.0011910388905
