TrialNum,Word,WordCategory,FishType,WordList,WordValence,WordReputation,CorrectResp,IncorrectResp,FishTypeFile,Round,WordType,Condition,weather_thisRepN,weather_thisTrialN,weather_thisN,weather_thisIndex,total_experiment_thisRepN,total_experiment_thisTrialN,total_experiment_thisN,total_experiment_thisIndex,boat_thisRepN,boat_thisTrialN,boat_thisN,boat_thisIndex,para_thisRepN,para_thisTrialN,para_thisN,para_thisIndex,fish_thisRepN,fish_thisTrialN,fish_thisN,fish_thisIndex,fis_temp_thisRepN,fis_temp_thisTrialN,fis_temp_thisN,fis_temp_thisIndex,fis_round_thisRepN,fis_round_thisTrialN,fis_round_thisN,fis_round_thisIndex,fis_trials_thisRepN,fis_trials_thisTrialN,fis_trials_thisN,fis_trials_thisIndex,fis_main_break_thisRepN,fis_main_break_thisTrialN,fis_main_break_thisN,fis_main_break_thisIndex,fis_slider_2_started,Fish_2_started,fis_WordBox_2_started,fis_Words_2_started,fis_slider_2_response,fis_slider_2_rt,Response_2,Feedback_2,fis_BackGround_Feedback_2_started,fis_Feedbacks_2_started,fis_Feedbacks_2_stopped,fis_BackGround_Feedback_2_stopped,fis_slider_started,fis_BackGround_started,Fish_started,fis_WordBox_started,fis_Words_started,fis_slider_response,fis_slider_rt,Response,Feedback,fis_BackGround_Feedback_started,fis_Feedbacks_started,fis_Feedbacks_stopped,fis_BackGround_Feedback_stopped,fis_roundN,id_,x___,x__,weather,boat,parachute,fish,test_mode,date,expName,psychopyVersion,frameRate
1,넌 교활해,5,Orange,B,2.33333333333333,2.13333333333333,ScrollUp,ScrollDown,Orange.png,NaN,,,NaN,NaN,NaN,NaN,0,0,0,0,NaN,NaN,NaN,NaN,NaN,NaN,NaN,NaN,0,0,0,0,0,0,0,0,NaN,NaN,NaN,NaN,NaN,NaN,NaN,NaN,NaN,NaN,NaN,NaN,157.289020100026,157.289020100026,157.289020100026,157.289020100026,2,2.73955960001331,ScrollUp,정답,160.041501799948,160.041501799948,160.551742599928,NaN,NaN,NaN,NaN,NaN,NaN,NaN,NaN,,,NaN,NaN,NaN,NaN,NaN,2,54,여자,no,no,no,yes,no,2023-06-02_11h44.45.965,Main,2022.2.4,59.9979720810407
2,넌 슬기로워,2,Green,A,6.16666666666667,4.1,ScrollDown,ScrollUp,Green.png,NaN,,,NaN,NaN,NaN,NaN,0,0,0,0,NaN,NaN,NaN,NaN,NaN,NaN,NaN,NaN,0,0,0,0,0,1,1,1,NaN,NaN,NaN,NaN,NaN,NaN,NaN,NaN,NaN,NaN,NaN,NaN,161.061121499981,161.061121499981,161.061121499981,161.061121499981,1,1.59953559993301,ScrollDown,정답,162.667707499932,162.667707499932,163.167772899964,163.674290700001,NaN,NaN,NaN,NaN,NaN,NaN,NaN,,,NaN,NaN,NaN,NaN,NaN,2,54,여자,no,no,no,yes,no,2023-06-02_11h44.45.965,Main,2022.2.4,59.9979720810407
3,나를 보내줘,6,Green,A,0,0,ScrollUp,ScrollDown,Green.png,NaN,,,NaN,NaN,NaN,NaN,0,0,0,0,NaN,NaN,NaN,NaN,NaN,NaN,NaN,NaN,0,0,0,0,0,2,2,2,NaN,NaN,NaN,NaN,NaN,NaN,NaN,NaN,NaN,NaN,NaN,NaN,163.674290700001,163.674290700001,163.674290700001,163.674290700001,1,2.48330429999623,ScrollDown,오답,166.167740899953,166.167740899953,166.667821999989,167.172304900014,NaN,NaN,NaN,NaN,NaN,NaN,NaN,,,NaN,NaN,NaN,NaN,NaN,2,54,여자,no,no,no,yes,no,2023-06-02_11h44.45.965,Main,2022.2.4,59.9979720810407
4,나를 데려가줘,6,Orange,B,0,0,ScrollDown,ScrollUp,Orange.png,NaN,,,NaN,NaN,NaN,NaN,0,0,0,0,NaN,NaN,NaN,NaN,NaN,NaN,NaN,NaN,0,0,0,0,0,3,3,3,NaN,NaN,NaN,NaN,NaN,NaN,NaN,NaN,NaN,NaN,NaN,NaN,167.172304900014,167.172304900014,167.172304900014,167.172304900014,1,2.05016270000488,ScrollDown,정답,169.234295099974,169.234295099974,169.734513700008,170.240438399953,NaN,NaN,NaN,NaN,NaN,NaN,NaN,,,NaN,NaN,NaN,NaN,NaN,2,54,여자,no,no,no,yes,no,2023-06-02_11h44.45.965,Main,2022.2.4,59.9979720810407
1,넌 교활해,5,Orange,B,2.33333333333333,2.13333333333333,ScrollUp,ScrollDown,Orange.png,NaN,,,NaN,NaN,NaN,NaN,0,0,0,0,NaN,NaN,NaN,NaN,NaN,NaN,NaN,NaN,0,0,0,0,1,0,4,0,NaN,NaN,NaN,NaN,NaN,NaN,NaN,NaN,NaN,NaN,NaN,NaN,170.240438399953,170.240438399953,170.240438399953,170.240438399953,2,1.93316400004551,ScrollUp,정답,172.184696799959,172.184696799959,172.684451599955,173.190303999931,NaN,NaN,NaN,NaN,NaN,NaN,NaN,,,NaN,NaN,NaN,NaN,NaN,2,54,여자,no,no,no,yes,no,2023-06-02_11h44.45.965,Main,2022.2.4,59.9979720810407
2,넌 슬기로워,2,Green,A,6.16666666666667,4.1,ScrollDown,ScrollUp,Green.png,NaN,,,NaN,NaN,NaN,NaN,0,0,0,0,NaN,NaN,NaN,NaN,NaN,NaN,NaN,NaN,0,0,0,0,1,1,5,1,NaN,NaN,NaN,NaN,NaN,NaN,NaN,NaN,NaN,NaN,NaN,NaN,173.190303999931,173.190303999931,173.190303999931,173.190303999931,1,2.13181230006739,ScrollDown,정답,175.334353899932,175.334353899932,175.83449779998,176.337429599953,NaN,NaN,NaN,NaN,NaN,NaN,NaN,,,NaN,NaN,NaN,NaN,NaN,2,54,여자,no,no,no,yes,no,2023-06-02_11h44.45.965,Main,2022.2.4,59.9979720810407
3,나를 보내줘,6,Green,A,0,0,ScrollUp,ScrollDown,Green.png,NaN,,,NaN,NaN,NaN,NaN,0,0,0,0,NaN,NaN,NaN,NaN,NaN,NaN,NaN,NaN,0,0,0,0,1,2,6,2,NaN,NaN,NaN,NaN,NaN,NaN,NaN,NaN,NaN,NaN,NaN,NaN,176.337429599953,176.337429599953,176.337429599953,176.337429599953,2,1.63297929998953,ScrollUp,정답,177.984350299928,177.984350299928,178.484445799957,178.991184299928,NaN,NaN,NaN,NaN,NaN,NaN,NaN,,,NaN,NaN,NaN,NaN,NaN,2,54,여자,no,no,no,yes,no,2023-06-02_11h44.45.965,Main,2022.2.4,59.9979720810407
4,나를 데려가줘,6,Orange,B,0,0,ScrollDown,ScrollUp,Orange.png,NaN,,,NaN,NaN,NaN,NaN,0,0,0,0,NaN,NaN,NaN,NaN,NaN,NaN,NaN,NaN,0,0,0,0,1,3,7,3,NaN,NaN,NaN,NaN,NaN,NaN,NaN,NaN,NaN,NaN,NaN,NaN,178.991184299928,178.991184299928,178.991184299928,178.991184299928,1,1.21444130002055,ScrollDown,정답,180.217855899944,180.217855899944,180.717773300014,181.222955600009,NaN,NaN,NaN,NaN,NaN,NaN,NaN,,,NaN,NaN,NaN,NaN,NaN,2,54,여자,no,no,no,yes,no,2023-06-02_11h44.45.965,Main,2022.2.4,59.9979720810407
1,넌 교활해,5,Orange,B,2.33333333333333,2.13333333333333,ScrollUp,ScrollDown,Orange.png,NaN,,,NaN,NaN,NaN,NaN,0,0,0,0,NaN,NaN,NaN,NaN,NaN,NaN,NaN,NaN,0,0,0,0,2,0,8,0,NaN,NaN,NaN,NaN,NaN,NaN,NaN,NaN,NaN,NaN,NaN,NaN,181.222955600009,181.222955600009,181.222955600009,181.222955600009,2,1.91510149999522,ScrollUp,정답,183.151261499966,183.151261499966,183.652413700009,184.158980399952,NaN,NaN,NaN,NaN,NaN,NaN,NaN,,,NaN,NaN,NaN,NaN,NaN,2,54,여자,no,no,no,yes,no,2023-06-02_11h44.45.965,Main,2022.2.4,59.9979720810407
2,넌 슬기로워,2,Green,A,6.16666666666667,4.1,ScrollDown,ScrollUp,Green.png,NaN,,,NaN,NaN,NaN,NaN,0,0,0,0,NaN,NaN,NaN,NaN,NaN,NaN,NaN,NaN,0,0,0,0,2,1,9,1,NaN,NaN,NaN,NaN,NaN,NaN,NaN,NaN,NaN,NaN,NaN,NaN,184.158980399952,184.158980399952,184.158980399952,184.158980399952,1,1.23204389994498,ScrollDown,정답,185.401355899987,185.401355899987,185.901512300014,186.407177699963,NaN,NaN,NaN,NaN,NaN,NaN,NaN,,,NaN,NaN,NaN,NaN,NaN,2,54,여자,no,no,no,yes,no,2023-06-02_11h44.45.965,Main,2022.2.4,59.9979720810407
3,나를 보내줘,6,Green,A,0,0,ScrollUp,ScrollDown,Green.png,NaN,,,NaN,NaN,NaN,NaN,0,0,0,0,NaN,NaN,NaN,NaN,NaN,NaN,NaN,NaN,0,0,0,0,2,2,10,2,NaN,NaN,NaN,NaN,NaN,NaN,NaN,NaN,NaN,NaN,NaN,NaN,186.407177699963,186.407177699963,186.407177699963,186.407177699963,2,1.73302089993376,ScrollUp,정답,188.151405200013,188.151405200013,188.651396999951,189.15682439995,NaN,NaN,NaN,NaN,NaN,NaN,NaN,,,NaN,NaN,NaN,NaN,NaN,2,54,여자,no,no,no,yes,no,2023-06-02_11h44.45.965,Main,2022.2.4,59.9979720810407
4,나를 데려가줘,6,Orange,B,0,0,ScrollDown,ScrollUp,Orange.png,NaN,,,NaN,NaN,NaN,NaN,0,0,0,0,NaN,NaN,NaN,NaN,NaN,NaN,NaN,NaN,0,0,0,0,2,3,11,3,NaN,NaN,NaN,NaN,NaN,NaN,NaN,NaN,NaN,NaN,NaN,NaN,189.15682439995,189.15682439995,189.15682439995,189.15682439995,1,1.3661385999294,ScrollDown,정답,190.534278300009,190.534278300009,191.034352399991,191.535285699996,NaN,NaN,NaN,NaN,NaN,NaN,NaN,,,NaN,NaN,NaN,NaN,NaN,2,54,여자,no,no,no,yes,no,2023-06-02_11h44.45.965,Main,2022.2.4,59.9979720810407
1,넌 따뜻해,1,Orange,B,6.08333333333333,5.6,ScrollUp,ScrollDown,Orange.png,1,Positive,Incongruent,NaN,NaN,NaN,NaN,0,0,0,0,NaN,NaN,NaN,NaN,NaN,NaN,NaN,NaN,0,0,0,0,NaN,NaN,NaN,NaN,0,0,0,0,0,0,0,0,NaN,NaN,NaN,NaN,NaN,NaN,NaN,NaN,NaN,NaN,,,NaN,NaN,NaN,NaN,201.684365599998,201.684365599998,201.684365599998,201.684365599998,201.684365599998,2,1.85876199998893,ScrollUp,정답,203.53571039997,203.53571039997,204.05122220004,NaN,NaN,2,54,여자,no,no,no,yes,no,2023-06-02_11h44.45.965,Main,2022.2.4,59.9979720810407
2,넌 기품있어,2,Orange,B,5.79166666666667,4.5,ScrollUp,ScrollDown,Orange.png,1,Positive,Incongruent,NaN,NaN,NaN,NaN,0,0,0,0,NaN,NaN,NaN,NaN,NaN,NaN,NaN,NaN,0,0,0,0,NaN,NaN,NaN,NaN,0,0,0,0,0,1,1,1,NaN,NaN,NaN,NaN,NaN,NaN,NaN,NaN,NaN,NaN,,,NaN,NaN,NaN,NaN,204.583031899994,204.583031899994,204.583031899994,204.583031899994,204.583031899994,2,0.849133000010625,ScrollUp,정답,205.41765139997,205.41765139997,205.917690300033,206.444009999977,NaN,2,54,여자,no,no,no,yes,no,2023-06-02_11h44.45.965,Main,2022.2.4,59.9979720810407
3,나를 보내줘,6,Green,A,0,0,ScrollUp,ScrollDown,Green.png,1,NonTarget,NonTarget,NaN,NaN,NaN,NaN,0,0,0,0,NaN,NaN,NaN,NaN,NaN,NaN,NaN,NaN,0,0,0,0,NaN,NaN,NaN,NaN,0,0,0,0,0,2,2,2,NaN,NaN,NaN,NaN,NaN,NaN,NaN,NaN,NaN,NaN,,,NaN,NaN,NaN,NaN,206.444009999977,206.444009999977,206.444009999977,206.444009999977,206.444009999977,1.08796296296296,0.816608499968424,ScrollDown,오답,207.251926199999,207.251926199999,207.75138859998,208.27623920003,NaN,2,54,여자,no,no,no,yes,no,2023-06-02_11h44.45.965,Main,2022.2.4,59.9979720810407
4,넌 수동적이야,4,Green,A,2.83333333333333,2.93333333333333,ScrollDown,ScrollUp,Green.png,1,Negative,Incongruent,NaN,NaN,NaN,NaN,0,0,0,0,NaN,NaN,NaN,NaN,NaN,NaN,NaN,NaN,0,0,0,0,NaN,NaN,NaN,NaN,0,0,0,0,0,3,3,3,NaN,NaN,NaN,NaN,NaN,NaN,NaN,NaN,NaN,NaN,,,NaN,NaN,NaN,NaN,208.27623920003,208.27623920003,208.27623920003,208.27623920003,208.27623920003,1.16820987654321,1.63216879998799,ScrollDown,정답,209.901091399952,209.901091399952,210.401240200037,210.929909299943,NaN,2,54,여자,no,no,no,yes,no,2023-06-02_11h44.45.965,Main,2022.2.4,59.9979720810407
5,넌 사심이 없어,3,Orange,B,4.91666666666667,4.33333333333333,ScrollUp,ScrollDown,Orange.png,1,Neutral,Neutral,NaN,NaN,NaN,NaN,0,0,0,0,NaN,NaN,NaN,NaN,NaN,NaN,NaN,NaN,0,0,0,0,NaN,NaN,NaN,NaN,0,0,0,0,0,4,4,4,NaN,NaN,NaN,NaN,NaN,NaN,NaN,NaN,NaN,NaN,,,NaN,NaN,NaN,NaN,210.929909299943,210.929909299943,210.929909299943,210.929909299943,210.929909299943,1.83333333333333,1.09944889997132,ScrollUp,정답,212.01803539996,212.01803539996,212.517698099953,213.036337899975,NaN,2,54,여자,no,no,no,yes,no,2023-06-02_11h44.45.965,Main,2022.2.4,59.9979720810407
6,넌 헤퍼,5,Green,A,2.45833333333333,2.23333333333333,ScrollDown,ScrollUp,Green.png,1,Negative,Incongruent,NaN,NaN,NaN,NaN,0,0,0,0,NaN,NaN,NaN,NaN,NaN,NaN,NaN,NaN,0,0,0,0,NaN,NaN,NaN,NaN,0,0,0,0,0,5,5,5,NaN,NaN,NaN,NaN,NaN,NaN,NaN,NaN,NaN,NaN,,,NaN,NaN,NaN,NaN,213.036337899975,213.036337899975,213.036337899975,213.036337899975,213.036337899975,1.14197530864198,0.834496199968271,ScrollDown,정답,213.868110200041,213.868110200041,214.367710900027,214.895465199952,NaN,2,54,여자,no,no,no,yes,no,2023-06-02_11h44.45.965,Main,2022.2.4,59.9979720810407
7,넌 말쑥해,3,Green,A,4.83333333333333,4.33333333333333,ScrollDown,ScrollUp,Green.png,1,Neutral,Neutral,NaN,NaN,NaN,NaN,0,0,0,0,NaN,NaN,NaN,NaN,NaN,NaN,NaN,NaN,0,0,0,0,NaN,NaN,NaN,NaN,0,0,0,0,0,6,6,6,NaN,NaN,NaN,NaN,NaN,NaN,NaN,NaN,NaN,NaN,,,NaN,NaN,NaN,NaN,214.895465199952,214.895465199952,214.895465199952,214.895465199952,214.895465199952,1.28240740740741,0.881014400045387,ScrollDown,정답,215.767761099967,215.767761099967,216.268484700006,216.788223400014,NaN,2,54,여자,no,no,no,yes,no,2023-06-02_11h44.45.965,Main,2022.2.4,59.9979720810407
8,넌 투덜거려,5,Orange,B,2.54166666666667,2.26666666666667,ScrollUp,ScrollDown,Orange.png,1,Negative,Congruent,NaN,NaN,NaN,NaN,0,0,0,0,NaN,NaN,NaN,NaN,NaN,NaN,NaN,NaN,0,0,0,0,NaN,NaN,NaN,NaN,0,0,0,0,0,7,7,7,NaN,NaN,NaN,NaN,NaN,NaN,NaN,NaN,NaN,NaN,,,NaN,NaN,NaN,NaN,216.788223400014,216.788223400014,216.788223400014,216.788223400014,216.788223400014,1.34104938271605,1.0147601000499,ScrollDown,오답,217.801142100012,217.801142100012,218.301208199933,218.810105399927,NaN,2,54,여자,no,no,no,yes,no,2023-06-02_11h44.45.965,Main,2022.2.4,59.9979720810407
9,넌 적극적이야,1,Green,A,5.70833333333333,5.53333333333333,ScrollDown,ScrollUp,Green.png,1,Positive,Congruent,NaN,NaN,NaN,NaN,0,0,0,0,NaN,NaN,NaN,NaN,NaN,NaN,NaN,NaN,0,0,0,0,NaN,NaN,NaN,NaN,0,0,0,0,0,8,8,8,NaN,NaN,NaN,NaN,NaN,NaN,NaN,NaN,NaN,NaN,,,NaN,NaN,NaN,NaN,218.810105399927,218.810105399927,218.810105399927,218.810105399927,218.810105399927,1.28395061728395,0.899388400022872,ScrollDown,정답,219.717883400037,219.717883400037,220.217797399964,220.734324099962,NaN,2,54,여자,no,no,no,yes,no,2023-06-02_11h44.45.965,Main,2022.2.4,59.9979720810407
10,넌 재미없어,4,Orange,B,2.625,2.96666666666667,ScrollUp,ScrollDown,Orange.png,1,Negative,Congruent,NaN,NaN,NaN,NaN,0,0,0,0,NaN,NaN,NaN,NaN,NaN,NaN,NaN,NaN,0,0,0,0,NaN,NaN,NaN,NaN,0,0,0,0,0,9,9,9,NaN,NaN,NaN,NaN,NaN,NaN,NaN,NaN,NaN,NaN,,,NaN,NaN,NaN,NaN,220.734324099962,220.734324099962,220.734324099962,220.734324099962,220.734324099962,1.91666666666667,1.14880530000664,ScrollUp,정답,221.884701299947,221.884701299947,222.385332799982,222.907432200038,NaN,2,54,여자,no,no,no,yes,no,2023-06-02_11h44.45.965,Main,2022.2.4,59.9979720810407
11,넌 명석해,2,Green,A,5.875,4.03333333333333,ScrollDown,ScrollUp,Green.png,1,Positive,Congruent,NaN,NaN,NaN,NaN,0,0,0,0,NaN,NaN,NaN,NaN,NaN,NaN,NaN,NaN,0,0,0,0,NaN,NaN,NaN,NaN,0,0,0,0,0,10,10,10,NaN,NaN,NaN,NaN,NaN,NaN,NaN,NaN,NaN,NaN,,,NaN,NaN,NaN,NaN,222.907432200038,222.907432200038,222.907432200038,222.907432200038,222.907432200038,1.34567901234568,1.16484919993673,ScrollDown,정답,224.067674099933,224.067674099933,224.567774800002,225.083114200039,NaN,2,54,여자,no,no,no,yes,no,2023-06-02_11h44.45.965,Main,2022.2.4,59.9979720810407
12,나를 데려가줘,6,Orange,B,0,0,ScrollDown,ScrollUp,Orange.png,1,NonTarget,NonTarget,NaN,NaN,NaN,NaN,0,0,0,0,NaN,NaN,NaN,NaN,NaN,NaN,NaN,NaN,0,0,0,0,NaN,NaN,NaN,NaN,0,0,0,0,0,11,11,11,NaN,NaN,NaN,NaN,NaN,NaN,NaN,NaN,NaN,NaN,,,NaN,NaN,NaN,NaN,225.083114200039,225.083114200039,225.083114200039,225.083114200039,225.083114200039,1.11111111111111,1.68212549993768,ScrollDown,정답,226.76768109994,226.76768109994,227.268438200001,227.784306499991,NaN,2,54,여자,no,no,no,yes,no,2023-06-02_11h44.45.965,Main,2022.2.4,59.9979720810407
13,넌 소심해,4,Green,A,3,3.1,ScrollDown,ScrollUp,Green.png,1,Negative,Incongruent,NaN,NaN,NaN,NaN,0,0,0,0,NaN,NaN,NaN,NaN,NaN,NaN,NaN,NaN,0,0,0,0,NaN,NaN,NaN,NaN,0,0,0,0,0,12,12,12,NaN,NaN,NaN,NaN,NaN,NaN,NaN,NaN,NaN,NaN,,,NaN,NaN,NaN,NaN,227.784306499991,227.784306499991,227.784306499991,227.784306499991,227.784306499991,1.74382716049383,1.08281629998237,ScrollUp,오답,228.867721099989,228.867721099989,229.367646600003,229.887286899961,NaN,2,54,여자,no,no,no,yes,no,2023-06-02_11h44.45.965,Main,2022.2.4,59.9979720810407
14,넌 합리적이야,2,Green,A,5.58333333333333,4.73333333333333,ScrollDown,ScrollUp,Green.png,1,Positive,Congruent,NaN,NaN,NaN,NaN,0,0,0,0,NaN,NaN,NaN,NaN,NaN,NaN,NaN,NaN,0,0,0,0,NaN,NaN,NaN,NaN,0,0,0,0,0,13,13,13,NaN,NaN,NaN,NaN,NaN,NaN,NaN,NaN,NaN,NaN,,,NaN,NaN,NaN,NaN,229.887286899961,229.887286899961,229.887286899961,229.887286899961,229.887286899961,1.2608024691358,0.867084599914961,ScrollDown,정답,230.751108699944,230.751108699944,231.25138999999,231.78031609999,NaN,2,54,여자,no,no,no,yes,no,2023-06-02_11h44.45.965,Main,2022.2.4,59.9979720810407
15,넌 무자비해,5,Orange,B,2.33333333333333,2.1,ScrollUp,ScrollDown,Orange.png,1,Negative,Congruent,NaN,NaN,NaN,NaN,0,0,0,0,NaN,NaN,NaN,NaN,NaN,NaN,NaN,NaN,0,0,0,0,NaN,NaN,NaN,NaN,0,0,0,0,0,14,14,14,NaN,NaN,NaN,NaN,NaN,NaN,NaN,NaN,NaN,NaN,,,NaN,NaN,NaN,NaN,231.78031609999,231.78031609999,231.78031609999,231.78031609999,231.78031609999,1.91049382716049,1.43144130008295,ScrollUp,정답,233.201125000021,233.201125000021,233.701331599965,234.207919799956,NaN,2,54,여자,no,no,no,yes,no,2023-06-02_11h44.45.965,Main,2022.2.4,59.9979720810407
16,나를 보내줘,6,Green,A,0,0,ScrollUp,ScrollDown,Green.png,1,NonTarget,NonTarget,NaN,NaN,NaN,NaN,0,0,0,0,NaN,NaN,NaN,NaN,NaN,NaN,NaN,NaN,0,0,0,0,NaN,NaN,NaN,NaN,0,0,0,0,0,15,15,15,NaN,NaN,NaN,NaN,NaN,NaN,NaN,NaN,NaN,NaN,,,NaN,NaN,NaN,NaN,234.207919799956,234.207919799956,234.207919799956,234.207919799956,234.207919799956,1.87654320987654,2.23227599996608,ScrollUp,정답,236.451008999953,236.451008999953,236.951370300027,237.477531499928,NaN,2,54,여자,no,no,no,yes,no,2023-06-02_11h44.45.965,Main,2022.2.4,59.9979720810407
17,넌 현실적이야,3,Orange,B,4.60869565217391,4.76666666666667,ScrollUp,ScrollDown,Orange.png,1,Neutral,Neutral,NaN,NaN,NaN,NaN,0,0,0,0,NaN,NaN,NaN,NaN,NaN,NaN,NaN,NaN,0,0,0,0,NaN,NaN,NaN,NaN,0,0,0,0,0,16,16,16,NaN,NaN,NaN,NaN,NaN,NaN,NaN,NaN,NaN,NaN,,,NaN,NaN,NaN,NaN,237.477531499928,237.477531499928,237.477531499928,237.477531499928,237.477531499928,1.78703703703704,1.26611730002332,ScrollUp,정답,238.734252900002,238.734252900002,239.234677399974,239.748478799942,NaN,2,54,여자,no,no,no,yes,no,2023-06-02_11h44.45.965,Main,2022.2.4,59.9979720810407
18,넌 의리있어,1,Orange,B,5.83333333333333,5.63333333333333,ScrollUp,ScrollDown,Orange.png,1,Positive,Incongruent,NaN,NaN,NaN,NaN,0,0,0,0,NaN,NaN,NaN,NaN,NaN,NaN,NaN,NaN,0,0,0,0,NaN,NaN,NaN,NaN,0,0,0,0,0,17,17,17,NaN,NaN,NaN,NaN,NaN,NaN,NaN,NaN,NaN,NaN,,,NaN,NaN,NaN,NaN,239.748478799942,239.748478799942,239.748478799942,239.748478799942,239.748478799942,1.95216049382716,0.948457699967548,ScrollUp,정답,240.701190999942,240.701190999942,241.201332499972,241.726583200041,NaN,2,54,여자,no,no,no,yes,no,2023-06-02_11h44.45.965,Main,2022.2.4,59.9979720810407
19,넌 신경과민이야,5,Green,A,2.54166666666667,2.16666666666667,ScrollDown,ScrollUp,Green.png,1,Negative,Incongruent,NaN,NaN,NaN,NaN,0,0,0,0,NaN,NaN,NaN,NaN,NaN,NaN,NaN,NaN,0,0,0,0,NaN,NaN,NaN,NaN,0,0,0,0,0,18,18,18,NaN,NaN,NaN,NaN,NaN,NaN,NaN,NaN,NaN,NaN,,,NaN,NaN,NaN,NaN,241.726583200041,241.726583200041,241.726583200041,241.726583200041,241.726583200041,1.24074074074074,1.06620180001482,ScrollDown,정답,242.784415100003,242.784415100003,243.284296300029,243.797284099972,NaN,2,54,여자,no,no,no,yes,no,2023-06-02_11h44.45.965,Main,2022.2.4,59.9979720810407
20,넌 편안해,1,Green,A,5.91666666666667,5.86666666666667,ScrollDown,ScrollUp,Green.png,1,Positive,Congruent,NaN,NaN,NaN,NaN,0,0,0,0,NaN,NaN,NaN,NaN,NaN,NaN,NaN,NaN,0,0,0,0,NaN,NaN,NaN,NaN,0,0,0,0,0,19,19,19,NaN,NaN,NaN,NaN,NaN,NaN,NaN,NaN,NaN,NaN,,,NaN,NaN,NaN,NaN,243.797284099972,243.797284099972,243.797284099972,243.797284099972,243.797284099972,1.30092592592593,0.982280700001866,ScrollDown,정답,244.784275299986,244.784275299986,245.284398399992,245.810743000009,NaN,2,54,여자,no,no,no,yes,no,2023-06-02_11h44.45.965,Main,2022.2.4,59.9979720810407
21,넌 품위있어,2,Orange,B,5.29166666666667,4.46666666666667,ScrollUp,ScrollDown,Orange.png,1,Positive,Incongruent,NaN,NaN,NaN,NaN,0,0,0,0,NaN,NaN,NaN,NaN,NaN,NaN,NaN,NaN,0,0,0,0,NaN,NaN,NaN,NaN,0,0,0,0,0,20,20,20,NaN,NaN,NaN,NaN,NaN,NaN,NaN,NaN,NaN,NaN,,,NaN,NaN,NaN,NaN,245.810743000009,245.810743000009,245.810743000009,245.810743000009,245.810743000009,1.9429012345679,0.931545900064521,ScrollUp,정답,246.734233199968,246.734233199968,247.235179099953,247.756982699968,NaN,2,54,여자,no,no,no,yes,no,2023-06-02_11h44.45.965,Main,2022.2.4,59.9979720810407
22,넌 빈틈없어,3,Green,A,4.83333333333333,3.96666666666667,ScrollDown,ScrollUp,Green.png,1,Neutral,Neutral,NaN,NaN,NaN,NaN,0,0,0,0,NaN,NaN,NaN,NaN,NaN,NaN,NaN,NaN,0,0,0,0,NaN,NaN,NaN,NaN,0,0,0,0,0,21,21,21,NaN,NaN,NaN,NaN,NaN,NaN,NaN,NaN,NaN,NaN,,,NaN,NaN,NaN,NaN,247.756982699968,247.756982699968,247.756982699968,247.756982699968,247.756982699968,1.27623456790123,1.0505374999484,ScrollDown,정답,248.801496200031,248.801496200031,249.301253999933,249.810759500018,NaN,2,54,여자,no,no,no,yes,no,2023-06-02_11h44.45.965,Main,2022.2.4,59.9979720810407
23,넌 상상력없어,4,Orange,B,2.83333333333333,3.13333333333333,ScrollUp,ScrollDown,Orange.png,1,Negative,Congruent,NaN,NaN,NaN,NaN,0,0,0,0,NaN,NaN,NaN,NaN,NaN,NaN,NaN,NaN,0,0,0,0,NaN,NaN,NaN,NaN,0,0,0,0,0,22,22,22,NaN,NaN,NaN,NaN,NaN,NaN,NaN,NaN,NaN,NaN,,,NaN,NaN,NaN,NaN,249.810759500018,249.810759500018,249.810759500018,249.810759500018,249.810759500018,1.93672839506173,1.16667499998584,ScrollUp,정답,250.984682000009,250.984682000009,251.484388699988,252.002168999985,NaN,2,54,여자,no,no,no,yes,no,2023-06-02_11h44.45.965,Main,2022.2.4,59.9979720810407
24,넌 지혜로워,2,Orange,B,6.33333333333333,4.63333333333333,ScrollUp,ScrollDown,Orange.png,1,Positive,Incongruent,NaN,NaN,NaN,NaN,0,0,0,0,NaN,NaN,NaN,NaN,NaN,NaN,NaN,NaN,0,0,0,0,NaN,NaN,NaN,NaN,0,0,0,0,0,23,23,23,NaN,NaN,NaN,NaN,NaN,NaN,NaN,NaN,NaN,NaN,,,NaN,NaN,NaN,NaN,252.002168999985,252.002168999985,252.002168999985,252.002168999985,252.002168999985,1.77932098765432,0.784242699970491,ScrollUp,정답,252.784344899934,252.784344899934,253.284389800043,253.808405500022,NaN,2,54,여자,no,no,no,yes,no,2023-06-02_11h44.45.965,Main,2022.2.4,59.9979720810407
25,넌 시끄러워,4,Green,A,2.83333333333333,3.03333333333333,ScrollDown,ScrollUp,Green.png,1,Negative,Incongruent,NaN,NaN,NaN,NaN,0,0,0,0,NaN,NaN,NaN,NaN,NaN,NaN,NaN,NaN,0,0,0,0,NaN,NaN,NaN,NaN,0,0,0,0,0,24,24,24,NaN,NaN,NaN,NaN,NaN,NaN,NaN,NaN,NaN,NaN,,,NaN,NaN,NaN,NaN,253.808405500022,253.808405500022,253.808405500022,253.808405500022,253.808405500022,1.2608024691358,1.53301120002288,ScrollDown,정답,255.334221599973,255.334221599973,255.834303900017,256.364990900038,NaN,2,54,여자,no,no,no,yes,no,2023-06-02_11h44.45.965,Main,2022.2.4,59.9979720810407
26,넌 만사태평이야,3,Orange,B,4,4.33333333333333,ScrollUp,ScrollDown,Orange.png,1,Neutral,Neutral,NaN,NaN,NaN,NaN,0,0,0,0,NaN,NaN,NaN,NaN,NaN,NaN,NaN,NaN,0,0,0,0,NaN,NaN,NaN,NaN,0,0,0,0,0,25,25,25,NaN,NaN,NaN,NaN,NaN,NaN,NaN,NaN,NaN,NaN,,,NaN,NaN,NaN,NaN,256.364990900038,256.364990900038,256.364990900038,256.364990900038,256.364990900038,1.47222222222222,0.782882699975744,NoResponse,무응답,257.13426099997,257.13426099997,257.634688399965,258.164988899953,NaN,2,54,여자,no,no,no,yes,no,2023-06-02_11h44.45.965,Main,2022.2.4,59.9979720810407
27,넌 붙임성있어,1,Green,A,5.70833333333333,5.63333333333333,ScrollDown,ScrollUp,Green.png,1,Positive,Congruent,NaN,NaN,NaN,NaN,0,0,0,0,NaN,NaN,NaN,NaN,NaN,NaN,NaN,NaN,0,0,0,0,NaN,NaN,NaN,NaN,0,0,0,0,0,26,26,26,NaN,NaN,NaN,NaN,NaN,NaN,NaN,NaN,NaN,NaN,,,NaN,NaN,NaN,NaN,258.164988899953,258.164988899953,258.164988899953,258.164988899953,258.164988899953,1.32716049382716,1.43312159995548,ScrollDown,정답,259.584367200034,259.584367200034,260.084211300011,260.595650500036,NaN,2,54,여자,no,no,no,yes,no,2023-06-02_11h44.45.965,Main,2022.2.4,59.9979720810407
28,넌 영리해,2,Green,A,6,4.03333333333333,ScrollDown,ScrollUp,Green.png,1,Positive,Congruent,NaN,NaN,NaN,NaN,0,0,0,0,NaN,NaN,NaN,NaN,NaN,NaN,NaN,NaN,0,0,0,0,NaN,NaN,NaN,NaN,0,0,0,0,0,27,27,27,NaN,NaN,NaN,NaN,NaN,NaN,NaN,NaN,NaN,NaN,,,NaN,NaN,NaN,NaN,260.595650500036,260.595650500036,260.595650500036,260.595650500036,260.595650500036,1.375,1.28318069991656,ScrollDown,정답,261.884171299986,261.884171299986,262.384180099936,262.898023599992,NaN,2,54,여자,no,no,no,yes,no,2023-06-02_11h44.45.965,Main,2022.2.4,59.9979720810407
29,넌 열심이야,1,Orange,B,6.04166666666667,5.83333333333333,ScrollUp,ScrollDown,Orange.png,1,Positive,Incongruent,NaN,NaN,NaN,NaN,0,0,0,0,NaN,NaN,NaN,NaN,NaN,NaN,NaN,NaN,0,0,0,0,NaN,NaN,NaN,NaN,0,0,0,0,0,28,28,28,NaN,NaN,NaN,NaN,NaN,NaN,NaN,NaN,NaN,NaN,,,NaN,NaN,NaN,NaN,262.898023599992,262.898023599992,262.898023599992,262.898023599992,262.898023599992,1.96141975308642,1.16576479992364,ScrollUp,정답,264.067573599983,264.067573599983,264.567585399956,265.074571399949,NaN,2,54,여자,no,no,no,yes,no,2023-06-02_11h44.45.965,Main,2022.2.4,59.9979720810407
30,넌 인기없어,4,Orange,B,3,3.3,ScrollUp,ScrollDown,Orange.png,1,Negative,Congruent,NaN,NaN,NaN,NaN,0,0,0,0,NaN,NaN,NaN,NaN,NaN,NaN,NaN,NaN,0,0,0,0,NaN,NaN,NaN,NaN,0,0,0,0,0,29,29,29,NaN,NaN,NaN,NaN,NaN,NaN,NaN,NaN,NaN,NaN,,,NaN,NaN,NaN,NaN,265.074571399949,265.074571399949,265.074571399949,265.074571399949,265.074571399949,1.8858024691358,0.783228699932806,ScrollUp,정답,265.867514199927,265.867514199927,266.367879300029,266.884514100035,NaN,2,54,여자,no,no,no,yes,no,2023-06-02_11h44.45.965,Main,2022.2.4,59.9979720810407
31,넌 익살스러워,3,Green,A,4.70833333333333,4.83333333333333,ScrollDown,ScrollUp,Green.png,1,Neutral,Neutral,NaN,NaN,NaN,NaN,0,0,0,0,NaN,NaN,NaN,NaN,NaN,NaN,NaN,NaN,0,0,0,0,NaN,NaN,NaN,NaN,0,0,0,0,0,30,30,30,NaN,NaN,NaN,NaN,NaN,NaN,NaN,NaN,NaN,NaN,,,NaN,NaN,NaN,NaN,266.884514100035,266.884514100035,266.884514100035,266.884514100035,266.884514100035,1.38888888888889,0.783348899916746,ScrollDown,정답,267.667603799957,267.667603799957,268.168112499989,268.67613129993,NaN,2,54,여자,no,no,no,yes,no,2023-06-02_11h44.45.965,Main,2022.2.4,59.9979720810407
32,넌 이기적이야,5,Orange,B,2.29166666666667,2.33333333333333,ScrollUp,ScrollDown,Orange.png,1,Negative,Congruent,NaN,NaN,NaN,NaN,0,0,0,0,NaN,NaN,NaN,NaN,NaN,NaN,NaN,NaN,0,0,0,0,NaN,NaN,NaN,NaN,0,0,0,0,0,31,31,31,NaN,NaN,NaN,NaN,NaN,NaN,NaN,NaN,NaN,NaN,,,NaN,NaN,NaN,NaN,268.67613129993,268.67613129993,268.67613129993,268.67613129993,268.67613129993,1.8641975308642,0.715867399936542,ScrollUp,정답,269.401674199966,269.401674199966,269.901444899966,270.412021099939,NaN,2,54,여자,no,no,no,yes,no,2023-06-02_11h44.45.965,Main,2022.2.4,59.9979720810407
33,나를 데려가줘,6,Orange,B,0,0,ScrollDown,ScrollUp,Orange.png,1,NonTarget,NonTarget,NaN,NaN,NaN,NaN,0,0,0,0,NaN,NaN,NaN,NaN,NaN,NaN,NaN,NaN,0,0,0,0,NaN,NaN,NaN,NaN,0,0,0,0,0,32,32,32,NaN,NaN,NaN,NaN,NaN,NaN,NaN,NaN,NaN,NaN,,,NaN,NaN,NaN,NaN,270.412021099939,270.412021099939,270.412021099939,270.412021099939,270.412021099939,1.19907407407407,2.54963950009551,ScrollDown,정답,272.968689400004,272.968689400004,273.467564099934,273.981398500036,NaN,2,54,여자,no,no,no,yes,no,2023-06-02_11h44.45.965,Main,2022.2.4,59.9979720810407
34,넌 기회주의자야,5,Green,A,2.875,2.13333333333333,ScrollDown,ScrollUp,Green.png,1,Negative,Incongruent,NaN,NaN,NaN,NaN,0,0,0,0,NaN,NaN,NaN,NaN,NaN,NaN,NaN,NaN,0,0,0,0,NaN,NaN,NaN,NaN,0,0,0,0,0,33,33,33,NaN,NaN,NaN,NaN,NaN,NaN,NaN,NaN,NaN,NaN,,,NaN,NaN,NaN,NaN,273.981398500036,273.981398500036,273.981398500036,273.981398500036,273.981398500036,1.23148148148148,1.24912629998289,ScrollDown,정답,275.234481199994,275.234481199994,275.734340699972,276.235792299965,NaN,2,54,여자,no,no,no,yes,no,2023-06-02_11h44.45.965,Main,2022.2.4,59.9979720810407
NaN,,NaN,,,NaN,NaN,,,,NaN,,,NaN,NaN,NaN,NaN,0,0,0,0,NaN,NaN,NaN,NaN,NaN,NaN,NaN,NaN,0,0,0,0,NaN,NaN,NaN,NaN,0,0,0,0,NaN,NaN,NaN,NaN,0,0,0,0,NaN,NaN,NaN,NaN,NaN,NaN,,,NaN,NaN,NaN,NaN,NaN,NaN,NaN,NaN,NaN,NaN,NaN,,,NaN,NaN,NaN,NaN,2,2,54,여자,no,no,no,yes,no,2023-06-02_11h44.45.965,Main,2022.2.4,59.9979720810407
NaN,,NaN,,,NaN,NaN,,,,NaN,,,NaN,NaN,NaN,NaN,0,0,0,0,NaN,NaN,NaN,NaN,NaN,NaN,NaN,NaN,0,0,0,0,NaN,NaN,NaN,NaN,0,0,0,0,NaN,NaN,NaN,NaN,NaN,NaN,NaN,NaN,NaN,NaN,NaN,NaN,NaN,NaN,,,NaN,NaN,NaN,NaN,NaN,NaN,NaN,NaN,NaN,NaN,NaN,,,NaN,NaN,NaN,NaN,NaN,2,54,여자,no,no,no,yes,no,2023-06-02_11h44.45.965,Main,2022.2.4,59.9979720810407
1,넌 미성숙해,4,Green,A,3,3.2,ScrollDown,ScrollUp,Green.png,2,Negative,Incongruent,NaN,NaN,NaN,NaN,0,0,0,0,NaN,NaN,NaN,NaN,NaN,NaN,NaN,NaN,0,0,0,0,NaN,NaN,NaN,NaN,1,0,1,0,0,0,0,0,NaN,NaN,NaN,NaN,NaN,NaN,NaN,NaN,NaN,NaN,,,NaN,NaN,NaN,NaN,314.806650299928,314.806650299928,314.806650299928,314.806650299928,314.806650299928,1.24228395061728,1.01800370006822,ScrollDown,정답,315.834144099965,315.834144099965,316.334303200012,316.859789000009,NaN,2,54,여자,no,no,no,yes,no,2023-06-02_11h44.45.965,Main,2022.2.4,59.9979720810407
2,넌 반사회적이야,5,Orange,B,2.41666666666667,2.03333333333333,ScrollUp,ScrollDown,Orange.png,2,Negative,Congruent,NaN,NaN,NaN,NaN,0,0,0,0,NaN,NaN,NaN,NaN,NaN,NaN,NaN,NaN,0,0,0,0,NaN,NaN,NaN,NaN,1,0,1,0,0,1,1,1,NaN,NaN,NaN,NaN,NaN,NaN,NaN,NaN,NaN,NaN,,,NaN,NaN,NaN,NaN,316.859789000009,316.859789000009,316.859789000009,316.859789000009,316.859789000009,1.63117283950617,0.832382799941115,ScrollUp,정답,317.685068799998,317.685068799998,318.184126600041,318.707135300036,NaN,2,54,여자,no,no,no,yes,no,2023-06-02_11h44.45.965,Main,2022.2.4,59.9979720810407
3,넌 유능해,2,Green,A,6.20833333333333,4.43333333333333,ScrollDown,ScrollUp,Green.png,2,Positive,Congruent,NaN,NaN,NaN,NaN,0,0,0,0,NaN,NaN,NaN,NaN,NaN,NaN,NaN,NaN,0,0,0,0,NaN,NaN,NaN,NaN,1,0,1,0,0,2,2,2,NaN,NaN,NaN,NaN,NaN,NaN,NaN,NaN,NaN,NaN,,,NaN,NaN,NaN,NaN,318.707135300036,318.707135300036,318.707135300036,318.707135300036,318.707135300036,1.27777777777778,2.16627080005128,ScrollDown,정답,320.867440699949,320.867440699949,321.367786200019,321.876573199988,NaN,2,54,여자,no,no,no,yes,no,2023-06-02_11h44.45.965,Main,2022.2.4,59.9979720810407
4,넌 능숙해,2,Orange,B,5.66666666666667,4.73333333333333,ScrollUp,ScrollDown,Orange.png,2,Positive,Incongruent,NaN,NaN,NaN,NaN,0,0,0,0,NaN,NaN,NaN,NaN,NaN,NaN,NaN,NaN,0,0,0,0,NaN,NaN,NaN,NaN,1,0,1,0,0,3,3,3,NaN,NaN,NaN,NaN,NaN,NaN,NaN,NaN,NaN,NaN,,,NaN,NaN,NaN,NaN,321.876573199988,321.876573199988,321.876573199988,321.876573199988,321.876573199988,1.59259259259259,0.766745200031437,ScrollUp,정답,322.651268700021,322.651268700021,323.151974100037,323.671418900019,NaN,2,54,여자,no,no,no,yes,no,2023-06-02_11h44.45.965,Main,2022.2.4,59.9979720810407
5,넌 진부해,4,Orange,B,2.45833333333333,3.16666666666667,ScrollUp,ScrollDown,Orange.png,2,Negative,Congruent,NaN,NaN,NaN,NaN,0,0,0,0,NaN,NaN,NaN,NaN,NaN,NaN,NaN,NaN,0,0,0,0,NaN,NaN,NaN,NaN,1,0,1,0,0,4,4,4,NaN,NaN,NaN,NaN,NaN,NaN,NaN,NaN,NaN,NaN,,,NaN,NaN,NaN,NaN,323.671418900019,323.671418900019,323.671418900019,323.671418900019,323.671418900019,1.63271604938272,0.865303099970333,ScrollUp,정답,324.534395199968,324.534395199968,325.034164699959,325.539291399997,NaN,2,54,여자,no,no,no,yes,no,2023-06-02_11h44.45.965,Main,2022.2.4,59.9979720810407
6,나를 보내줘,6,Green,A,0,0,ScrollUp,ScrollDown,Green.png,2,NonTarget,NonTarget,NaN,NaN,NaN,NaN,0,0,0,0,NaN,NaN,NaN,NaN,NaN,NaN,NaN,NaN,0,0,0,0,NaN,NaN,NaN,NaN,1,0,1,0,0,5,5,5,NaN,NaN,NaN,NaN,NaN,NaN,NaN,NaN,NaN,NaN,,,NaN,NaN,NaN,NaN,325.539291399997,325.539291399997,325.539291399997,325.539291399997,325.539291399997,1.29320987654321,1.10076890001073,ScrollDown,오답,326.651075799949,326.651075799949,327.151475699968,327.673350199941,NaN,2,54,여자,no,no,no,yes,no,2023-06-02_11h44.45.965,Main,2022.2.4,59.9979720810407
7,넌 엄격해,3,Green,A,4.16666666666667,4.1,ScrollDown,ScrollUp,Green.png,2,Neutral,Neutral,NaN,NaN,NaN,NaN,0,0,0,0,NaN,NaN,NaN,NaN,NaN,NaN,NaN,NaN,0,0,0,0,NaN,NaN,NaN,NaN,1,0,1,0,0,6,6,6,NaN,NaN,NaN,NaN,NaN,NaN,NaN,NaN,NaN,NaN,,,NaN,NaN,NaN,NaN,327.673350199941,327.673350199941,327.673350199941,327.673350199941,327.673350199941,1.41512345679012,0.822848400101066,ScrollDown,정답,328.484518899932,328.484518899932,328.984269000008,329.494653900038,NaN,2,54,여자,no,no,no,yes,no,2023-06-02_11h44.45.965,Main,2022.2.4,59.9979720810407
8,나를 보내줘,6,Green,A,0,0,ScrollUp,ScrollDown,Green.png,2,NonTarget,NonTarget,NaN,NaN,NaN,NaN,0,0,0,0,NaN,NaN,NaN,NaN,NaN,NaN,NaN,NaN,0,0,0,0,NaN,NaN,NaN,NaN,1,0,1,0,0,7,7,7,NaN,NaN,NaN,NaN,NaN,NaN,NaN,NaN,NaN,NaN,,,NaN,NaN,NaN,NaN,329.494653900038,329.494653900038,329.494653900038,329.494653900038,329.494653900038,2,0.96604829991702,ScrollUp,정답,330.467752399971,330.467752399971,330.967902999953,331.479922499973,NaN,2,54,여자,no,no,no,yes,no,2023-06-02_11h44.45.965,Main,2022.2.4,59.9979720810407
9,넌 대담해,3,Orange,B,4.875,4.86666666666667,ScrollUp,ScrollDown,Orange.png,2,Neutral,Neutral,NaN,NaN,NaN,NaN,0,0,0,0,NaN,NaN,NaN,NaN,NaN,NaN,NaN,NaN,0,0,0,0,NaN,NaN,NaN,NaN,1,0,1,0,0,8,8,8,NaN,NaN,NaN,NaN,NaN,NaN,NaN,NaN,NaN,NaN,,,NaN,NaN,NaN,NaN,331.479922499973,331.479922499973,331.479922499973,331.479922499973,331.479922499973,1.22067901234568,0.998552300035954,ScrollDown,오답,332.485641799984,332.485641799984,332.984488799935,NaN,NaN,2,54,여자,no,no,no,yes,no,2023-06-02_11h44.45.965,Main,2022.2.4,59.9979720810407
10,넌 꾸준해,1,Green,A,5.91666666666667,5.8,ScrollDown,ScrollUp,Green.png,2,Positive,Congruent,NaN,NaN,NaN,NaN,0,0,0,0,NaN,NaN,NaN,NaN,NaN,NaN,NaN,NaN,0,0,0,0,NaN,NaN,NaN,NaN,1,0,1,0,0,9,9,9,NaN,NaN,NaN,NaN,NaN,NaN,NaN,NaN,NaN,NaN,,,NaN,NaN,NaN,NaN,333.524167699972,333.524167699972,333.524167699972,333.524167699972,333.524167699972,1.30401234567901,0.883452799986117,ScrollDown,정답,334.402144299936,334.402144299936,334.917710399954,NaN,NaN,2,54,여자,no,no,no,yes,no,2023-06-02_11h44.45.965,Main,2022.2.4,59.9979720810407
11,나를 데려가줘,6,Orange,B,0,0,ScrollDown,ScrollUp,Orange.png,2,NonTarget,NonTarget,NaN,NaN,NaN,NaN,0,0,0,0,NaN,NaN,NaN,NaN,NaN,NaN,NaN,NaN,0,0,0,0,NaN,NaN,NaN,NaN,1,0,1,0,0,10,10,10,NaN,NaN,NaN,NaN,NaN,NaN,NaN,NaN,NaN,NaN,,,NaN,NaN,NaN,NaN,335.425343399984,335.425343399984,335.425343399984,335.425343399984,335.425343399984,1.43672839506173,1.45752449997235,ScrollDown,정답,336.884289199952,336.884289199952,337.384188600001,337.899569700006,NaN,2,54,여자,no,no,no,yes,no,2023-06-02_11h44.45.965,Main,2022.2.4,59.9979720810407
12,넌 독선적이야,5,Green,A,2.45833333333333,1.93333333333333,ScrollDown,ScrollUp,Green.png,2,Negative,Incongruent,NaN,NaN,NaN,NaN,0,0,0,0,NaN,NaN,NaN,NaN,NaN,NaN,NaN,NaN,0,0,0,0,NaN,NaN,NaN,NaN,1,0,1,0,0,11,11,11,NaN,NaN,NaN,NaN,NaN,NaN,NaN,NaN,NaN,NaN,,,NaN,NaN,NaN,NaN,337.899569700006,337.899569700006,337.899569700006,337.899569700006,337.899569700006,1.40123456790123,0.8994608001085,ScrollDown,정답,338.800984399975,338.800984399975,339.301021300023,339.805776800029,NaN,2,54,여자,no,no,no,yes,no,2023-06-02_11h44.45.965,Main,2022.2.4,59.9979720810407
13,나를 보내줘,6,Green,A,0,0,ScrollUp,ScrollDown,Green.png,2,NonTarget,NonTarget,NaN,NaN,NaN,NaN,0,0,0,0,NaN,NaN,NaN,NaN,NaN,NaN,NaN,NaN,0,0,0,0,NaN,NaN,NaN,NaN,1,0,1,0,0,12,12,12,NaN,NaN,NaN,NaN,NaN,NaN,NaN,NaN,NaN,NaN,,,NaN,NaN,NaN,NaN,339.805776800029,339.805776800029,339.805776800029,339.805776800029,339.805776800029,1.90586419753086,0.916848700027913,ScrollUp,정답,340.734203599975,340.734203599975,341.234127099975,341.764325900003,NaN,2,54,여자,no,no,no,yes,no,2023-06-02_11h44.45.965,Main,2022.2.4,59.9979720810407
14,넌 책임감있어,1,Orange,B,6.34782608695652,6,ScrollUp,ScrollDown,Orange.png,2,Positive,Incongruent,NaN,NaN,NaN,NaN,0,0,0,0,NaN,NaN,NaN,NaN,NaN,NaN,NaN,NaN,0,0,0,0,NaN,NaN,NaN,NaN,1,0,1,0,0,13,13,13,NaN,NaN,NaN,NaN,NaN,NaN,NaN,NaN,NaN,NaN,,,NaN,NaN,NaN,NaN,341.764325900003,341.764325900003,341.764325900003,341.764325900003,341.764325900003,1.27623456790123,0.898881800007075,ScrollDown,오답,342.651355299982,342.651355299982,343.151104199933,343.663240200025,NaN,2,54,여자,no,no,no,yes,no,2023-06-02_11h44.45.965,Main,2022.2.4,59.9979720810407
15,넌 문학적이야,3,Green,A,4.70833333333333,4.33333333333333,ScrollDown,ScrollUp,Green.png,2,Neutral,Neutral,NaN,NaN,NaN,NaN,0,0,0,0,NaN,NaN,NaN,NaN,NaN,NaN,NaN,NaN,0,0,0,0,NaN,NaN,NaN,NaN,1,0,1,0,0,14,14,14,NaN,NaN,NaN,NaN,NaN,NaN,NaN,NaN,NaN,NaN,,,NaN,NaN,NaN,NaN,343.663240200025,343.663240200025,343.663240200025,343.663240200025,343.663240200025,1.33487654320988,1.53984009998385,ScrollDown,정답,345.200952499988,345.200952499988,345.701666399953,346.210953500005,NaN,2,54,여자,no,no,no,yes,no,2023-06-02_11h44.45.965,Main,2022.2.4,59.9979720810407
16,넌 재미있어,1,Orange,B,5.875,5.7,ScrollUp,ScrollDown,Orange.png,2,Positive,Incongruent,NaN,NaN,NaN,NaN,0,0,0,0,NaN,NaN,NaN,NaN,NaN,NaN,NaN,NaN,0,0,0,0,NaN,NaN,NaN,NaN,1,0,1,0,0,15,15,15,NaN,NaN,NaN,NaN,NaN,NaN,NaN,NaN,NaN,NaN,,,NaN,NaN,NaN,NaN,346.210953500005,346.210953500005,346.210953500005,346.210953500005,346.210953500005,1.8070987654321,1.23270170006435,ScrollUp,정답,347.451394899981,347.451394899981,347.950832300005,348.458886499982,NaN,2,54,여자,no,no,no,yes,no,2023-06-02_11h44.45.965,Main,2022.2.4,59.9979720810407
17,나를 데려가줘,6,Orange,B,0,0,ScrollDown,ScrollUp,Orange.png,2,NonTarget,NonTarget,NaN,NaN,NaN,NaN,0,0,0,0,NaN,NaN,NaN,NaN,NaN,NaN,NaN,NaN,0,0,0,0,NaN,NaN,NaN,NaN,1,0,1,0,0,16,16,16,NaN,NaN,NaN,NaN,NaN,NaN,NaN,NaN,NaN,NaN,,,NaN,NaN,NaN,NaN,348.458886499982,348.458886499982,348.458886499982,348.458886499982,348.458886499982,1.22067901234568,1.43238410004415,ScrollDown,정답,349.900966599933,349.900966599933,350.401068800013,350.914669799968,NaN,2,54,여자,no,no,no,yes,no,2023-06-02_11h44.45.965,Main,2022.2.4,59.9979720810407
18,넌 협력적이야,1,Green,A,5.625,5.63333333333333,ScrollDown,ScrollUp,Green.png,2,Positive,Congruent,NaN,NaN,NaN,NaN,0,0,0,0,NaN,NaN,NaN,NaN,NaN,NaN,NaN,NaN,0,0,0,0,NaN,NaN,NaN,NaN,1,0,1,0,0,17,17,17,NaN,NaN,NaN,NaN,NaN,NaN,NaN,NaN,NaN,NaN,,,NaN,NaN,NaN,NaN,350.914669799968,350.914669799968,350.914669799968,350.914669799968,350.914669799968,1.35185185185185,0.965966699994169,ScrollDown,정답,351.884352599969,351.884352599969,352.384381099953,352.894859399996,NaN,2,54,여자,no,no,no,yes,no,2023-06-02_11h44.45.965,Main,2022.2.4,59.9979720810407
19,넌 평범해,3,Orange,B,4.33333333333333,4.23333333333333,ScrollUp,ScrollDown,Orange.png,2,Neutral,Neutral,NaN,NaN,NaN,NaN,0,0,0,0,NaN,NaN,NaN,NaN,NaN,NaN,NaN,NaN,0,0,0,0,NaN,NaN,NaN,NaN,1,0,1,0,0,18,18,18,NaN,NaN,NaN,NaN,NaN,NaN,NaN,NaN,NaN,NaN,,,NaN,NaN,NaN,NaN,352.894859399996,352.894859399996,352.894859399996,352.894859399996,352.894859399996,1.41049382716049,0.867184499977157,ScrollDown,오답,353.767762299976,353.767762299976,354.267441399978,354.775789699983,NaN,2,54,여자,no,no,no,yes,no,2023-06-02_11h44.45.965,Main,2022.2.4,59.9979720810407
20,넌 오만해,5,Green,A,2.33333333333333,2,ScrollDown,ScrollUp,Green.png,2,Negative,Incongruent,NaN,NaN,NaN,NaN,0,0,0,0,NaN,NaN,NaN,NaN,NaN,NaN,NaN,NaN,0,0,0,0,NaN,NaN,NaN,NaN,1,0,1,0,0,19,19,19,NaN,NaN,NaN,NaN,NaN,NaN,NaN,NaN,NaN,NaN,,,NaN,NaN,NaN,NaN,354.775789699983,354.775789699983,354.775789699983,354.775789699983,354.775789699983,1.42746913580247,0.867022600024939,ScrollDown,정답,355.651212399942,355.651212399942,356.151619600016,356.663404399995,NaN,2,54,여자,no,no,no,yes,no,2023-06-02_11h44.45.965,Main,2022.2.4,59.9979720810407
21,넌 운이없어,4,Orange,B,3,3.46666666666667,ScrollUp,ScrollDown,Orange.png,2,Negative,Congruent,NaN,NaN,NaN,NaN,0,0,0,0,NaN,NaN,NaN,NaN,NaN,NaN,NaN,NaN,0,0,0,0,NaN,NaN,NaN,NaN,1,0,1,0,0,20,20,20,NaN,NaN,NaN,NaN,NaN,NaN,NaN,NaN,NaN,NaN,,,NaN,NaN,NaN,NaN,356.663404399995,356.663404399995,356.663404399995,356.663404399995,356.663404399995,1.67592592592593,1.14914090000093,ScrollUp,정답,357.817530500004,357.817530500004,358.317490099929,358.834234599955,NaN,2,54,여자,no,no,no,yes,no,2023-06-02_11h44.45.965,Main,2022.2.4,59.9979720810407
22,넌 창조적이야,2,Orange,B,6.125,4.63333333333333,ScrollUp,ScrollDown,Orange.png,2,Positive,Incongruent,NaN,NaN,NaN,NaN,0,0,0,0,NaN,NaN,NaN,NaN,NaN,NaN,NaN,NaN,0,0,0,0,NaN,NaN,NaN,NaN,1,0,1,0,0,21,21,21,NaN,NaN,NaN,NaN,NaN,NaN,NaN,NaN,NaN,NaN,,,NaN,NaN,NaN,NaN,358.834234599955,358.834234599955,358.834234599955,358.834234599955,358.834234599955,2,0.701179400086403,ScrollUp,정답,359.534613299998,359.534613299998,360.034018900013,360.543570299982,NaN,2,54,여자,no,no,no,yes,no,2023-06-02_11h44.45.965,Main,2022.2.4,59.9979720810407
23,나를 보내줘,6,Green,A,0,0,ScrollUp,ScrollDown,Green.png,2,NonTarget,NonTarget,NaN,NaN,NaN,NaN,0,0,0,0,NaN,NaN,NaN,NaN,NaN,NaN,NaN,NaN,0,0,0,0,NaN,NaN,NaN,NaN,1,0,1,0,0,22,22,22,NaN,NaN,NaN,NaN,NaN,NaN,NaN,NaN,NaN,NaN,,,NaN,NaN,NaN,NaN,360.543570299982,360.543570299982,360.543570299982,360.543570299982,360.543570299982,1.68827160493827,1.16567150002811,ScrollUp,정답,361.717694999999,361.717694999999,362.217604000005,362.739257100038,NaN,2,54,여자,no,no,no,yes,no,2023-06-02_11h44.45.965,Main,2022.2.4,59.9979720810407
24,넌 통찰력있어,2,Green,A,6.5,4.8,ScrollDown,ScrollUp,Green.png,2,Positive,Congruent,NaN,NaN,NaN,NaN,0,0,0,0,NaN,NaN,NaN,NaN,NaN,NaN,NaN,NaN,0,0,0,0,NaN,NaN,NaN,NaN,1,0,1,0,0,23,23,23,NaN,NaN,NaN,NaN,NaN,NaN,NaN,NaN,NaN,NaN,,,NaN,NaN,NaN,NaN,362.739257100038,362.739257100038,362.739257100038,362.739257100038,362.739257100038,1.18364197530864,1.40046909998637,ScrollDown,정답,364.133990400005,364.133990400005,364.634336399962,365.150869800011,NaN,2,54,여자,no,no,no,yes,no,2023-06-02_11h44.45.965,Main,2022.2.4,59.9979720810407
25,넌 경솔해,5,Orange,B,2.45833333333333,2.26666666666667,ScrollUp,ScrollDown,Orange.png,2,Negative,Congruent,NaN,NaN,NaN,NaN,0,0,0,0,NaN,NaN,NaN,NaN,NaN,NaN,NaN,NaN,0,0,0,0,NaN,NaN,NaN,NaN,1,0,1,0,0,24,24,24,NaN,NaN,NaN,NaN,NaN,NaN,NaN,NaN,NaN,NaN,,,NaN,NaN,NaN,NaN,365.150869800011,365.150869800011,365.150869800011,365.150869800011,365.150869800011,1.58950617283951,1.03155260009225,ScrollUp,정답,366.183919199975,366.183919199975,366.684001600021,367.207862899988,NaN,2,54,여자,no,no,no,yes,no,2023-06-02_11h44.45.965,Main,2022.2.4,59.9979720810407
26,넌 초조해,4,Green,A,2.91666666666667,3.13333333333333,ScrollDown,ScrollUp,Green.png,2,Negative,Incongruent,NaN,NaN,NaN,NaN,0,0,0,0,NaN,NaN,NaN,NaN,NaN,NaN,NaN,NaN,0,0,0,0,NaN,NaN,NaN,NaN,1,0,1,0,0,25,25,25,NaN,NaN,NaN,NaN,NaN,NaN,NaN,NaN,NaN,NaN,,,NaN,NaN,NaN,NaN,367.207862899988,367.207862899988,367.207862899988,367.207862899988,367.207862899988,1.15586419753086,1.03222579997964,ScrollDown,정답,368.234284200007,368.234284200007,368.734311499982,369.249241999933,NaN,2,54,여자,no,no,no,yes,no,2023-06-02_11h44.45.965,Main,2022.2.4,59.9979720810407
27,넌 무관심해,4,Orange,B,2.83333333333333,2.9,ScrollUp,ScrollDown,Orange.png,2,Negative,Congruent,NaN,NaN,NaN,NaN,0,0,0,0,NaN,NaN,NaN,NaN,NaN,NaN,NaN,NaN,0,0,0,0,NaN,NaN,NaN,NaN,1,0,1,0,0,26,26,26,NaN,NaN,NaN,NaN,NaN,NaN,NaN,NaN,NaN,NaN,,,NaN,NaN,NaN,NaN,369.249241999933,369.249241999933,369.249241999933,369.249241999933,369.249241999933,1.79320987654321,0.898834399995394,ScrollUp,정답,370.150948600029,370.150948600029,370.650968399947,371.159422499943,NaN,2,54,여자,no,no,no,yes,no,2023-06-02_11h44.45.965,Main,2022.2.4,59.9979720810407
28,넌 감성적이야,3,Orange,B,4.125,4.16666666666667,ScrollUp,ScrollDown,Orange.png,2,Neutral,Neutral,NaN,NaN,NaN,NaN,0,0,0,0,NaN,NaN,NaN,NaN,NaN,NaN,NaN,NaN,0,0,0,0,NaN,NaN,NaN,NaN,1,0,1,0,0,27,27,27,NaN,NaN,NaN,NaN,NaN,NaN,NaN,NaN,NaN,NaN,,,NaN,NaN,NaN,NaN,371.159422499943,371.159422499943,371.159422499943,371.159422499943,371.159422499943,1.91049382716049,0.715298300026916,ScrollUp,정답,371.884074299945,371.884074299945,372.384136599954,372.896384599968,NaN,2,54,여자,no,no,no,yes,no,2023-06-02_11h44.45.965,Main,2022.2.4,59.9979720810407
29,넌 배려심있어,1,Green,A,6.08333333333333,5.5,ScrollDown,ScrollUp,Green.png,2,Positive,Congruent,NaN,NaN,NaN,NaN,0,0,0,0,NaN,NaN,NaN,NaN,NaN,NaN,NaN,NaN,0,0,0,0,NaN,NaN,NaN,NaN,1,0,1,0,0,28,28,28,NaN,NaN,NaN,NaN,NaN,NaN,NaN,NaN,NaN,NaN,,,NaN,NaN,NaN,NaN,372.896384599968,372.896384599968,372.896384599968,372.896384599968,372.896384599968,1.36728395061728,1.08190870005637,ScrollDown,정답,373.984086200013,373.984086200013,374.484116000007,375.007141600014,NaN,2,54,여자,no,no,no,yes,no,2023-06-02_11h44.45.965,Main,2022.2.4,59.9979720810407
30,넌 숨김없어,3,Green,A,4.5,4.93333333333333,ScrollDown,ScrollUp,Green.png,2,Neutral,Neutral,NaN,NaN,NaN,NaN,0,0,0,0,NaN,NaN,NaN,NaN,NaN,NaN,NaN,NaN,0,0,0,0,NaN,NaN,NaN,NaN,1,0,1,0,0,29,29,29,NaN,NaN,NaN,NaN,NaN,NaN,NaN,NaN,NaN,NaN,,,NaN,NaN,NaN,NaN,375.007141600014,375.007141600014,375.007141600014,375.007141600014,375.007141600014,1.36574074074074,0.639259900082834,ScrollDown,정답,375.634621600038,375.634621600038,376.13408670004,376.65329659998,NaN,2,54,여자,no,no,no,yes,no,2023-06-02_11h44.45.965,Main,2022.2.4,59.9979720810407
31,넌 훌륭해,2,Orange,B,5.91666666666667,4.03333333333333,ScrollUp,ScrollDown,Orange.png,2,Positive,Incongruent,NaN,NaN,NaN,NaN,0,0,0,0,NaN,NaN,NaN,NaN,NaN,NaN,NaN,NaN,0,0,0,0,NaN,NaN,NaN,NaN,1,0,1,0,0,30,30,30,NaN,NaN,NaN,NaN,NaN,NaN,NaN,NaN,NaN,NaN,,,NaN,NaN,NaN,NaN,376.65329659998,376.65329659998,376.65329659998,376.65329659998,376.65329659998,1.11574074074074,0.765232799923979,ScrollDown,오답,377.417343399953,377.417343399953,377.917442200007,378.425958600012,NaN,2,54,여자,no,no,no,yes,no,2023-06-02_11h44.45.965,Main,2022.2.4,59.9979720810407
32,넌 슬기로워,2,Green,A,6.16666666666667,4.1,ScrollDown,ScrollUp,Green.png,2,Positive,Congruent,NaN,NaN,NaN,NaN,0,0,0,0,NaN,NaN,NaN,NaN,NaN,NaN,NaN,NaN,0,0,0,0,NaN,NaN,NaN,NaN,1,0,1,0,0,31,31,31,NaN,NaN,NaN,NaN,NaN,NaN,NaN,NaN,NaN,NaN,,,NaN,NaN,NaN,NaN,378.425958600012,378.425958600012,378.425958600012,378.425958600012,378.425958600012,1.28240740740741,0.849325600080192,ScrollDown,정답,379.284056199947,379.284056199947,379.784162099939,380.296487199957,NaN,2,54,여자,no,no,no,yes,no,2023-06-02_11h44.45.965,Main,2022.2.4,59.9979720810407
33,넌 냉혹해,5,Green,A,2.58333333333333,2.1,ScrollDown,ScrollUp,Green.png,2,Negative,Incongruent,NaN,NaN,NaN,NaN,0,0,0,0,NaN,NaN,NaN,NaN,NaN,NaN,NaN,NaN,0,0,0,0,NaN,NaN,NaN,NaN,1,0,1,0,0,32,32,32,NaN,NaN,NaN,NaN,NaN,NaN,NaN,NaN,NaN,NaN,,,NaN,NaN,NaN,NaN,380.296487199957,380.296487199957,380.296487199957,380.296487199957,380.296487199957,1.25154320987654,2.19908039993607,ScrollDown,정답,382.501707899966,382.501707899966,383.001836500014,383.508649099967,NaN,2,54,여자,no,no,no,yes,no,2023-06-02_11h44.45.965,Main,2022.2.4,59.9979720810407
34,나를 데려가줘,6,Orange,B,0,0,ScrollDown,ScrollUp,Orange.png,2,NonTarget,NonTarget,NaN,NaN,NaN,NaN,0,0,0,0,NaN,NaN,NaN,NaN,NaN,NaN,NaN,NaN,0,0,0,0,NaN,NaN,NaN,NaN,1,0,1,0,0,33,33,33,NaN,NaN,NaN,NaN,NaN,NaN,NaN,NaN,NaN,NaN,,,NaN,NaN,NaN,NaN,383.508649099967,383.508649099967,383.508649099967,383.508649099967,383.508649099967,1.87191358024691,0.749113300000317,ScrollUp,오답,384.267460300005,384.267460300005,384.76756539999,385.276499500033,NaN,2,54,여자,no,no,no,yes,no,2023-06-02_11h44.45.965,Main,2022.2.4,59.9979720810407
35,넌 편파적이야,5,Orange,B,2.125,2,ScrollUp,ScrollDown,Orange.png,2,Negative,Congruent,NaN,NaN,NaN,NaN,0,0,0,0,NaN,NaN,NaN,NaN,NaN,NaN,NaN,NaN,0,0,0,0,NaN,NaN,NaN,NaN,1,0,1,0,0,34,34,34,NaN,NaN,NaN,NaN,NaN,NaN,NaN,NaN,NaN,NaN,,,NaN,NaN,NaN,NaN,385.276499500033,385.276499500033,385.276499500033,385.276499500033,385.276499500033,1.91975308641975,1.117691499996,ScrollUp,정답,386.401782399975,386.401782399975,386.901283200015,NaN,NaN,2,54,여자,no,no,no,yes,no,2023-06-02_11h44.45.965,Main,2022.2.4,59.9979720810407
36,넌 슬퍼,4,Green,A,2.58333333333333,3.06666666666667,ScrollDown,ScrollUp,Green.png,2,Negative,Incongruent,NaN,NaN,NaN,NaN,0,0,0,0,NaN,NaN,NaN,NaN,NaN,NaN,NaN,NaN,0,0,0,0,NaN,NaN,NaN,NaN,1,0,1,0,0,35,35,35,NaN,NaN,NaN,NaN,NaN,NaN,NaN,NaN,NaN,NaN,,,NaN,NaN,NaN,NaN,387.427265399951,387.427265399951,387.427265399951,387.427265399951,387.427265399951,1.3179012345679,0.833606400061399,ScrollDown,정답,388.267503999989,388.267503999989,388.767510000034,389.274843199993,NaN,2,54,여자,no,no,no,yes,no,2023-06-02_11h44.45.965,Main,2022.2.4,59.9979720810407
37,나를 데려가줘,6,Orange,B,0,0,ScrollDown,ScrollUp,Orange.png,2,NonTarget,NonTarget,NaN,NaN,NaN,NaN,0,0,0,0,NaN,NaN,NaN,NaN,NaN,NaN,NaN,NaN,0,0,0,0,NaN,NaN,NaN,NaN,1,0,1,0,0,36,36,36,NaN,NaN,NaN,NaN,NaN,NaN,NaN,NaN,NaN,NaN,,,NaN,NaN,NaN,NaN,389.274843199993,389.274843199993,389.274843199993,389.274843199993,389.274843199993,1.22530864197531,1.31735069991555,ScrollDown,정답,390.601405799971,390.601405799971,391.101076400024,391.62540489994,NaN,2,54,여자,no,no,no,yes,no,2023-06-02_11h44.45.965,Main,2022.2.4,59.9979720810407
38,넌 친절해,1,Orange,B,6.04166666666667,5.53333333333333,ScrollUp,ScrollDown,Orange.png,2,Positive,Incongruent,NaN,NaN,NaN,NaN,0,0,0,0,NaN,NaN,NaN,NaN,NaN,NaN,NaN,NaN,0,0,0,0,NaN,NaN,NaN,NaN,1,0,1,0,0,37,37,37,NaN,NaN,NaN,NaN,NaN,NaN,NaN,NaN,NaN,NaN,,,NaN,NaN,NaN,NaN,391.62540489994,391.62540489994,391.62540489994,391.62540489994,391.62540489994,1.66820987654321,1.00104220001958,ScrollUp,정답,392.617884699954,392.617884699954,393.117433300009,393.617297000019,NaN,2,54,여자,no,no,no,yes,no,2023-06-02_11h44.45.965,Main,2022.2.4,59.9979720810407
NaN,,NaN,,,NaN,NaN,,,,NaN,,,NaN,NaN,NaN,NaN,0,0,0,0,NaN,NaN,NaN,NaN,NaN,NaN,NaN,NaN,0,0,0,0,NaN,NaN,NaN,NaN,1,0,1,0,NaN,NaN,NaN,NaN,0,0,0,0,NaN,NaN,NaN,NaN,NaN,NaN,,,NaN,NaN,NaN,NaN,NaN,NaN,NaN,NaN,NaN,NaN,NaN,,,NaN,NaN,NaN,NaN,3,2,54,여자,no,no,no,yes,no,2023-06-02_11h44.45.965,Main,2022.2.4,59.9979720810407
NaN,,NaN,,,NaN,NaN,,,,NaN,,,NaN,NaN,NaN,NaN,0,0,0,0,NaN,NaN,NaN,NaN,NaN,NaN,NaN,NaN,0,0,0,0,NaN,NaN,NaN,NaN,1,0,1,0,NaN,NaN,NaN,NaN,NaN,NaN,NaN,NaN,NaN,NaN,NaN,NaN,NaN,NaN,,,NaN,NaN,NaN,NaN,NaN,NaN,NaN,NaN,NaN,NaN,NaN,,,NaN,NaN,NaN,NaN,NaN,2,54,여자,no,no,no,yes,no,2023-06-02_11h44.45.965,Main,2022.2.4,59.9979720810407
1,넌 엉성해,4,Green,A,3,3.3,ScrollDown,ScrollUp,Green.png,3,Negative,Incongruent,NaN,NaN,NaN,NaN,0,0,0,0,NaN,NaN,NaN,NaN,NaN,NaN,NaN,NaN,0,0,0,0,NaN,NaN,NaN,NaN,2,0,2,0,0,0,0,0,NaN,NaN,NaN,NaN,NaN,NaN,NaN,NaN,NaN,NaN,,,NaN,NaN,NaN,NaN,432.222560900031,432.222560900031,432.222560900031,432.222560900031,432.222560900031,1.20987654320988,1.07885359995998,ScrollDown,정답,433.301671099965,433.301671099965,433.801205900032,434.306074099964,NaN,2,54,여자,no,no,no,yes,no,2023-06-02_11h44.45.965,Main,2022.2.4,59.9979720810407
2,나를 보내줘,6,Green,A,0,0,ScrollUp,ScrollDown,Green.png,3,NonTarget,NonTarget,NaN,NaN,NaN,NaN,0,0,0,0,NaN,NaN,NaN,NaN,NaN,NaN,NaN,NaN,0,0,0,0,NaN,NaN,NaN,NaN,2,0,2,0,0,1,1,1,NaN,NaN,NaN,NaN,NaN,NaN,NaN,NaN,NaN,NaN,,,NaN,NaN,NaN,NaN,434.306074099964,434.306074099964,434.306074099964,434.306074099964,434.306074099964,1.95061728395062,0.933714099926874,ScrollUp,정답,435.251053699991,435.251053699991,435.750748499995,436.275338999927,NaN,2,54,여자,no,no,no,yes,no,2023-06-02_11h44.45.965,Main,2022.2.4,59.9979720810407
3,넌 활발해,1,Orange,B,5.66666666666667,5.6,ScrollUp,ScrollDown,Orange.png,3,Positive,Incongruent,NaN,NaN,NaN,NaN,0,0,0,0,NaN,NaN,NaN,NaN,NaN,NaN,NaN,NaN,0,0,0,0,NaN,NaN,NaN,NaN,2,0,2,0,0,2,2,2,NaN,NaN,NaN,NaN,NaN,NaN,NaN,NaN,NaN,NaN,,,NaN,NaN,NaN,NaN,436.275338999927,436.275338999927,436.275338999927,436.275338999927,436.275338999927,1.3179012345679,0.948903099982999,ScrollDown,오답,437.21764659998,437.21764659998,437.717443699948,438.22605930001,NaN,2,54,여자,no,no,no,yes,no,2023-06-02_11h44.45.965,Main,2022.2.4,59.9979720810407
4,넌 논리적이야,2,Green,A,5.66666666666667,4.63333333333333,ScrollDown,ScrollUp,Green.png,3,Positive,Congruent,NaN,NaN,NaN,NaN,0,0,0,0,NaN,NaN,NaN,NaN,NaN,NaN,NaN,NaN,0,0,0,0,NaN,NaN,NaN,NaN,2,0,2,0,0,3,3,3,NaN,NaN,NaN,NaN,NaN,NaN,NaN,NaN,NaN,NaN,,,NaN,NaN,NaN,NaN,438.22605930001,438.22605930001,438.22605930001,438.22605930001,438.22605930001,1.15123456790123,1.23421619995497,ScrollDown,정답,439.467235399992,439.467235399992,439.967472399934,440.47951720003,NaN,2,54,여자,no,no,no,yes,no,2023-06-02_11h44.45.965,Main,2022.2.4,59.9979720810407
5,넌 과묵해,3,Green,A,3.875,4.4,ScrollDown,ScrollUp,Green.png,3,Neutral,Neutral,NaN,NaN,NaN,NaN,0,0,0,0,NaN,NaN,NaN,NaN,NaN,NaN,NaN,NaN,0,0,0,0,NaN,NaN,NaN,NaN,2,0,2,0,0,4,4,4,NaN,NaN,NaN,NaN,NaN,NaN,NaN,NaN,NaN,NaN,,,NaN,NaN,NaN,NaN,440.47951720003,440.47951720003,440.47951720003,440.47951720003,440.47951720003,1,0.832688599941321,ScrollDown,정답,441.317412600038,441.317412600038,441.817293999949,442.325525499997,NaN,2,54,여자,no,no,no,yes,no,2023-06-02_11h44.45.965,Main,2022.2.4,59.9979720810407
6,나를 데려가줘,6,Orange,B,0,0,ScrollDown,ScrollUp,Orange.png,3,NonTarget,NonTarget,NaN,NaN,NaN,NaN,0,0,0,0,NaN,NaN,NaN,NaN,NaN,NaN,NaN,NaN,0,0,0,0,NaN,NaN,NaN,NaN,2,0,2,0,0,5,5,5,NaN,NaN,NaN,NaN,NaN,NaN,NaN,NaN,NaN,NaN,,,NaN,NaN,NaN,NaN,442.325525499997,442.325525499997,442.325525499997,442.325525499997,442.325525499997,1,1.3498232999118,ScrollDown,정답,443.683787900023,443.683787900023,444.184529699967,444.694889900042,NaN,2,54,여자,no,no,no,yes,no,2023-06-02_11h44.45.965,Main,2022.2.4,59.9979720810407
7,넌 미숙해,4,Orange,B,3,3,ScrollUp,ScrollDown,Orange.png,3,Negative,Congruent,NaN,NaN,NaN,NaN,0,0,0,0,NaN,NaN,NaN,NaN,NaN,NaN,NaN,NaN,0,0,0,0,NaN,NaN,NaN,NaN,2,0,2,0,0,6,6,6,NaN,NaN,NaN,NaN,NaN,NaN,NaN,NaN,NaN,NaN,,,NaN,NaN,NaN,NaN,444.694889900042,444.694889900042,444.694889900042,444.694889900042,444.694889900042,1.71759259259259,0.798375300015323,ScrollUp,정답,445.501076099928,445.501076099928,446.000787499943,446.512362599955,NaN,2,54,여자,no,no,no,yes,no,2023-06-02_11h44.45.965,Main,2022.2.4,59.9979720810407
8,나를 보내줘,6,Green,A,0,0,ScrollUp,ScrollDown,Green.png,3,NonTarget,NonTarget,NaN,NaN,NaN,NaN,0,0,0,0,NaN,NaN,NaN,NaN,NaN,NaN,NaN,NaN,0,0,0,0,NaN,NaN,NaN,NaN,2,0,2,0,0,7,7,7,NaN,NaN,NaN,NaN,NaN,NaN,NaN,NaN,NaN,NaN,,,NaN,NaN,NaN,NaN,446.512362599955,446.512362599955,446.512362599955,446.512362599955,446.512362599955,1.85030864197531,1.29960229992867,ScrollUp,정답,447.817215799936,447.817215799936,448.317127899965,448.825367599959,NaN,2,54,여자,no,no,no,yes,no,2023-06-02_11h44.45.965,Main,2022.2.4,59.9979720810407
9,넌 자신만만해,3,Orange,B,4.83333333333333,4.33333333333333,ScrollUp,ScrollDown,Orange.png,3,Neutral,Neutral,NaN,NaN,NaN,NaN,0,0,0,0,NaN,NaN,NaN,NaN,NaN,NaN,NaN,NaN,0,0,0,0,NaN,NaN,NaN,NaN,2,0,2,0,0,8,8,8,NaN,NaN,NaN,NaN,NaN,NaN,NaN,NaN,NaN,NaN,,,NaN,NaN,NaN,NaN,448.825367599959,448.825367599959,448.825367599959,448.825367599959,448.825367599959,1.12808641975309,0.86691800004337,ScrollDown,오답,449.700752999983,449.700752999983,450.20104710001,450.718136799987,NaN,2,54,여자,no,no,no,yes,no,2023-06-02_11h44.45.965,Main,2022.2.4,59.9979720810407
10,넌 탐욕스러워,5,Green,A,2.25,2.1,ScrollDown,ScrollUp,Green.png,3,Negative,Incongruent,NaN,NaN,NaN,NaN,0,0,0,0,NaN,NaN,NaN,NaN,NaN,NaN,NaN,NaN,0,0,0,0,NaN,NaN,NaN,NaN,2,0,2,0,0,9,9,9,NaN,NaN,NaN,NaN,NaN,NaN,NaN,NaN,NaN,NaN,,,NaN,NaN,NaN,NaN,450.718136799987,450.718136799987,450.718136799987,450.718136799987,450.718136799987,1.21450617283951,0.833052400033921,ScrollDown,정답,451.550758099998,451.550758099998,452.050726699992,452.560547600035,NaN,2,54,여자,no,no,no,yes,no,2023-06-02_11h44.45.965,Main,2022.2.4,59.9979720810407
11,넌 인기있어,2,Green,A,5.45833333333333,4.5,ScrollDown,ScrollUp,Green.png,3,Positive,Congruent,NaN,NaN,NaN,NaN,0,0,0,0,NaN,NaN,NaN,NaN,NaN,NaN,NaN,NaN,0,0,0,0,NaN,NaN,NaN,NaN,2,0,2,0,0,10,10,10,NaN,NaN,NaN,NaN,NaN,NaN,NaN,NaN,NaN,NaN,,,NaN,NaN,NaN,NaN,452.560547600035,452.560547600035,452.560547600035,452.560547600035,452.560547600035,1.32561728395062,0.815932999947108,ScrollDown,정답,453.38392990001,453.38392990001,453.884197999956,454.390398000018,NaN,2,54,여자,no,no,no,yes,no,2023-06-02_11h44.45.965,Main,2022.2.4,59.9979720810407
12,나를 데려가줘,6,Orange,B,0,0,ScrollDown,ScrollUp,Orange.png,3,NonTarget,NonTarget,NaN,NaN,NaN,NaN,0,0,0,0,NaN,NaN,NaN,NaN,NaN,NaN,NaN,NaN,0,0,0,0,NaN,NaN,NaN,NaN,2,0,2,0,0,11,11,11,NaN,NaN,NaN,NaN,NaN,NaN,NaN,NaN,NaN,NaN,,,NaN,NaN,NaN,NaN,454.390398000018,454.390398000018,454.390398000018,454.390398000018,454.390398000018,1.99382716049383,0.868282900075428,ScrollUp,오답,455.267169400002,455.267169400002,455.767457099981,456.289845500025,NaN,2,54,여자,no,no,no,yes,no,2023-06-02_11h44.45.965,Main,2022.2.4,59.9979720810407
13,넌 뛰어나,2,Orange,B,6.16666666666667,4,ScrollUp,ScrollDown,Orange.png,3,Positive,Incongruent,NaN,NaN,NaN,NaN,0,0,0,0,NaN,NaN,NaN,NaN,NaN,NaN,NaN,NaN,0,0,0,0,NaN,NaN,NaN,NaN,2,0,2,0,0,12,12,12,NaN,NaN,NaN,NaN,NaN,NaN,NaN,NaN,NaN,NaN,,,NaN,NaN,NaN,NaN,456.289845500025,456.289845500025,456.289845500025,456.289845500025,456.289845500025,1.75771604938272,0.982460499973968,ScrollUp,정답,457.267146899947,457.267146899947,457.767338900012,458.286515699932,NaN,2,54,여자,no,no,no,yes,no,2023-06-02_11h44.45.965,Main,2022.2.4,59.9979720810407
14,넌 낙관적이야,1,Green,A,5.75,5.8,ScrollDown,ScrollUp,Green.png,3,Positive,Congruent,NaN,NaN,NaN,NaN,0,0,0,0,NaN,NaN,NaN,NaN,NaN,NaN,NaN,NaN,0,0,0,0,NaN,NaN,NaN,NaN,2,0,2,0,0,13,13,13,NaN,NaN,NaN,NaN,NaN,NaN,NaN,NaN,NaN,NaN,,,NaN,NaN,NaN,NaN,458.286515699932,458.286515699932,458.286515699932,458.286515699932,458.286515699932,1.23148148148148,1.01580649998505,ScrollDown,정답,459.300939499983,459.300939499983,459.801505399984,460.310746900039,NaN,2,54,여자,no,no,no,yes,no,2023-06-02_11h44.45.965,Main,2022.2.4,59.9979720810407
15,넌 산만해,4,Orange,B,2.69565217391304,3.03333333333333,ScrollUp,ScrollDown,Orange.png,3,Negative,Congruent,NaN,NaN,NaN,NaN,0,0,0,0,NaN,NaN,NaN,NaN,NaN,NaN,NaN,NaN,0,0,0,0,NaN,NaN,NaN,NaN,2,0,2,0,0,14,14,14,NaN,NaN,NaN,NaN,NaN,NaN,NaN,NaN,NaN,NaN,,,NaN,NaN,NaN,NaN,460.310746900039,460.310746900039,460.310746900039,460.310746900039,460.310746900039,1.8641975308642,1.14956619997974,ScrollUp,정답,461.467456999933,461.467456999933,461.967244699947,462.476447199937,NaN,2,54,여자,no,no,no,yes,no,2023-06-02_11h44.45.965,Main,2022.2.4,59.9979720810407
16,나를 보내줘,6,Green,A,0,0,ScrollUp,ScrollDown,Green.png,3,NonTarget,NonTarget,NaN,NaN,NaN,NaN,0,0,0,0,NaN,NaN,NaN,NaN,NaN,NaN,NaN,NaN,0,0,0,0,NaN,NaN,NaN,NaN,2,0,2,0,0,15,15,15,NaN,NaN,NaN,NaN,NaN,NaN,NaN,NaN,NaN,NaN,,,NaN,NaN,NaN,NaN,462.476447199937,462.476447199937,462.476447199937,462.476447199937,462.476447199937,1.68518518518519,1.43202399997972,ScrollUp,정답,463.917192299967,463.917192299967,464.417871600017,464.928066799999,NaN,2,54,여자,no,no,no,yes,no,2023-06-02_11h44.45.965,Main,2022.2.4,59.9979720810407
17,넌 교활해,5,Orange,B,2.33333333333333,2.13333333333333,ScrollUp,ScrollDown,Orange.png,3,Negative,Congruent,NaN,NaN,NaN,NaN,0,0,0,0,NaN,NaN,NaN,NaN,NaN,NaN,NaN,NaN,0,0,0,0,NaN,NaN,NaN,NaN,2,0,2,0,0,16,16,16,NaN,NaN,NaN,NaN,NaN,NaN,NaN,NaN,NaN,NaN,,,NaN,NaN,NaN,NaN,464.928066799999,464.928066799999,464.928066799999,464.928066799999,464.928066799999,1.82253086419753,1.43261769996025,ScrollUp,정답,466.367176000029,466.367176000029,466.867317899945,467.373075600015,NaN,2,54,여자,no,no,no,yes,no,2023-06-02_11h44.45.965,Main,2022.2.4,59.9979720810407
18,나를 보내줘,6,Green,A,0,0,ScrollUp,ScrollDown,Green.png,3,NonTarget,NonTarget,NaN,NaN,NaN,NaN,0,0,0,0,NaN,NaN,NaN,NaN,NaN,NaN,NaN,NaN,0,0,0,0,NaN,NaN,NaN,NaN,2,0,2,0,0,17,17,17,NaN,NaN,NaN,NaN,NaN,NaN,NaN,NaN,NaN,NaN,,,NaN,NaN,NaN,NaN,467.373075600015,467.373075600015,467.373075600015,467.373075600015,467.373075600015,1.72376543209877,1.25045799999498,ScrollUp,정답,468.634114300017,468.634114300017,469.134206700022,469.658406900009,NaN,2,54,여자,no,no,no,yes,no,2023-06-02_11h44.45.965,Main,2022.2.4,59.9979720810407
19,넌 불친절해,5,Orange,B,2.20833333333333,2.03333333333333,ScrollUp,ScrollDown,Orange.png,3,Negative,Congruent,NaN,NaN,NaN,NaN,0,0,0,0,NaN,NaN,NaN,NaN,NaN,NaN,NaN,NaN,0,0,0,0,NaN,NaN,NaN,NaN,2,0,2,0,0,18,18,18,NaN,NaN,NaN,NaN,NaN,NaN,NaN,NaN,NaN,NaN,,,NaN,NaN,NaN,NaN,469.658406900009,469.658406900009,469.658406900009,469.658406900009,469.658406900009,1.67901234567901,1.0824121000478,ScrollUp,정답,470.733672800008,470.733672800008,471.234381899936,471.744633499999,NaN,2,54,여자,no,no,no,yes,no,2023-06-02_11h44.45.965,Main,2022.2.4,59.9979720810407
20,넌 지적이야,2,Orange,B,5.75,4.36666666666667,ScrollUp,ScrollDown,Orange.png,3,Positive,Incongruent,NaN,NaN,NaN,NaN,0,0,0,0,NaN,NaN,NaN,NaN,NaN,NaN,NaN,NaN,0,0,0,0,NaN,NaN,NaN,NaN,2,0,2,0,0,19,19,19,NaN,NaN,NaN,NaN,NaN,NaN,NaN,NaN,NaN,NaN,,,NaN,NaN,NaN,NaN,471.744633499999,471.744633499999,471.744633499999,471.744633499999,471.744633499999,1.69907407407407,0.699430500040762,ScrollUp,정답,472.451216400019,472.451216400019,472.950792099931,473.474876299966,NaN,2,54,여자,no,no,no,yes,no,2023-06-02_11h44.45.965,Main,2022.2.4,59.9979720810407
21,넌 우유부단해,4,Green,A,2.66666666666667,3.16666666666667,ScrollDown,ScrollUp,Green.png,3,Negative,Incongruent,NaN,NaN,NaN,NaN,0,0,0,0,NaN,NaN,NaN,NaN,NaN,NaN,NaN,NaN,0,0,0,0,NaN,NaN,NaN,NaN,2,0,2,0,0,20,20,20,NaN,NaN,NaN,NaN,NaN,NaN,NaN,NaN,NaN,NaN,,,NaN,NaN,NaN,NaN,473.474876299966,473.474876299966,473.474876299966,473.474876299966,473.474876299966,1.21604938271605,1.73304960003588,ScrollDown,정답,475.201230300008,475.201230300008,475.700954700005,476.212725099991,NaN,2,54,여자,no,no,no,yes,no,2023-06-02_11h44.45.965,Main,2022.2.4,59.9979720810407
22,나를 데려가줘,6,Orange,B,0,0,ScrollDown,ScrollUp,Orange.png,3,NonTarget,NonTarget,NaN,NaN,NaN,NaN,0,0,0,0,NaN,NaN,NaN,NaN,NaN,NaN,NaN,NaN,0,0,0,0,NaN,NaN,NaN,NaN,2,0,2,0,0,21,21,21,NaN,NaN,NaN,NaN,NaN,NaN,NaN,NaN,NaN,NaN,,,NaN,NaN,NaN,NaN,476.212725099991,476.212725099991,476.212725099991,476.212725099991,476.212725099991,1.31018518518519,1.94997219997458,ScrollDown,정답,478.167185800034,478.167185800034,478.667223899974,479.175548800034,NaN,2,54,여자,no,no,no,yes,no,2023-06-02_11h44.45.965,Main,2022.2.4,59.9979720810407
23,넌 성실해,1,Orange,B,6.04166666666667,5.7,ScrollUp,ScrollDown,Orange.png,3,Positive,Incongruent,NaN,NaN,NaN,NaN,0,0,0,0,NaN,NaN,NaN,NaN,NaN,NaN,NaN,NaN,0,0,0,0,NaN,NaN,NaN,NaN,2,0,2,0,0,22,22,22,NaN,NaN,NaN,NaN,NaN,NaN,NaN,NaN,NaN,NaN,,,NaN,NaN,NaN,NaN,479.175548800034,479.175548800034,479.175548800034,479.175548800034,479.175548800034,1.91049382716049,0.997770500020124,ScrollUp,정답,480.183747199946,480.183747199946,480.684057999984,481.195657999953,NaN,2,54,여자,no,no,no,yes,no,2023-06-02_11h44.45.965,Main,2022.2.4,59.9979720810407
24,넌 현실주의적이야,3,Green,A,4.625,4.4,ScrollDown,ScrollUp,Green.png,3,Neutral,Neutral,NaN,NaN,NaN,NaN,0,0,0,0,NaN,NaN,NaN,NaN,NaN,NaN,NaN,NaN,0,0,0,0,NaN,NaN,NaN,NaN,2,0,2,0,0,23,23,23,NaN,NaN,NaN,NaN,NaN,NaN,NaN,NaN,NaN,NaN,,,NaN,NaN,NaN,NaN,481.195657999953,481.195657999953,481.195657999953,481.195657999953,481.195657999953,1.26388888888889,0.866482600104064,ScrollDown,정답,482.068000099971,482.068000099971,482.568136799964,483.075933699962,NaN,2,54,여자,no,no,no,yes,no,2023-06-02_11h44.45.965,Main,2022.2.4,59.9979720810407
25,넌 진실돼,1,Green,A,6.625,5.56666666666667,ScrollDown,ScrollUp,Green.png,3,Positive,Congruent,NaN,NaN,NaN,NaN,0,0,0,0,NaN,NaN,NaN,NaN,NaN,NaN,NaN,NaN,0,0,0,0,NaN,NaN,NaN,NaN,2,0,2,0,0,24,24,24,NaN,NaN,NaN,NaN,NaN,NaN,NaN,NaN,NaN,NaN,,,NaN,NaN,NaN,NaN,483.075933699962,483.075933699962,483.075933699962,483.075933699962,483.075933699962,1.28240740740741,0.733629999915138,ScrollDown,정답,483.817212500027,483.817212500027,484.317776700016,484.833334999974,NaN,2,54,여자,no,no,no,yes,no,2023-06-02_11h44.45.965,Main,2022.2.4,59.9979720810407
26,넌 천진난만해,3,Orange,B,4.95833333333333,4.83333333333333,ScrollUp,ScrollDown,Orange.png,3,Neutral,Neutral,NaN,NaN,NaN,NaN,0,0,0,0,NaN,NaN,NaN,NaN,NaN,NaN,NaN,NaN,0,0,0,0,NaN,NaN,NaN,NaN,2,0,2,0,0,25,25,25,NaN,NaN,NaN,NaN,NaN,NaN,NaN,NaN,NaN,NaN,,,NaN,NaN,NaN,NaN,484.833334999974,484.833334999974,484.833334999974,484.833334999974,484.833334999974,1.76234567901235,1.16610550007317,ScrollUp,정답,486.001748699928,486.001748699928,486.517125200015,487.011789100012,NaN,2,54,여자,no,no,no,yes,no,2023-06-02_11h44.45.965,Main,2022.2.4,59.9979720810407
27,넌 교양없어,5,Green,A,2.41666666666667,2.2,ScrollDown,ScrollUp,Green.png,3,Negative,Incongruent,NaN,NaN,NaN,NaN,0,0,0,0,NaN,NaN,NaN,NaN,NaN,NaN,NaN,NaN,0,0,0,0,NaN,NaN,NaN,NaN,2,0,2,0,0,26,26,26,NaN,NaN,NaN,NaN,NaN,NaN,NaN,NaN,NaN,NaN,,,NaN,NaN,NaN,NaN,487.011789100012,487.011789100012,487.011789100012,487.011789100012,487.011789100012,1.21759259259259,0.867318199947476,ScrollDown,정답,487.884306699969,487.884306699969,488.384366399958,488.888544099987,NaN,2,54,여자,no,no,no,yes,no,2023-06-02_11h44.45.965,Main,2022.2.4,59.9979720810407
28,나를 보내줘,6,Green,A,0,0,ScrollUp,ScrollDown,Green.png,3,NonTarget,NonTarget,NaN,NaN,NaN,NaN,0,0,0,0,NaN,NaN,NaN,NaN,NaN,NaN,NaN,NaN,0,0,0,0,NaN,NaN,NaN,NaN,2,0,2,0,0,27,27,27,NaN,NaN,NaN,NaN,NaN,NaN,NaN,NaN,NaN,NaN,,,NaN,NaN,NaN,NaN,488.888544099987,488.888544099987,488.888544099987,488.888544099987,488.888544099987,1.89969135802469,1.20018750010058,ScrollUp,정답,490.100963799981,490.100963799981,490.601228100015,491.110234200023,NaN,2,54,여자,no,no,no,yes,no,2023-06-02_11h44.45.965,Main,2022.2.4,59.9979720810407
29,넌 엉뚱스러워,3,Green,A,4.16666666666667,4.13333333333333,ScrollDown,ScrollUp,Green.png,3,Neutral,Neutral,NaN,NaN,NaN,NaN,0,0,0,0,NaN,NaN,NaN,NaN,NaN,NaN,NaN,NaN,0,0,0,0,NaN,NaN,NaN,NaN,2,0,2,0,0,28,28,28,NaN,NaN,NaN,NaN,NaN,NaN,NaN,NaN,NaN,NaN,,,NaN,NaN,NaN,NaN,491.110234200023,491.110234200023,491.110234200023,491.110234200023,491.110234200023,1.28703703703704,0.820171599974856,ScrollDown,정답,491.935354999965,491.935354999965,492.433973700041,NaN,NaN,2,54,여자,no,no,no,yes,no,2023-06-02_11h44.45.965,Main,2022.2.4,59.9979720810407
30,넌 무지해,4,Orange,B,2.54166666666667,3.06666666666667,ScrollUp,ScrollDown,Orange.png,3,Negative,Congruent,NaN,NaN,NaN,NaN,0,0,0,0,NaN,NaN,NaN,NaN,NaN,NaN,NaN,NaN,0,0,0,0,NaN,NaN,NaN,NaN,2,0,2,0,0,29,29,29,NaN,NaN,NaN,NaN,NaN,NaN,NaN,NaN,NaN,NaN,,,NaN,NaN,NaN,NaN,492.956481199944,492.956481199944,492.956481199944,492.956481199944,492.956481199944,1.90895061728395,1.01872210006695,ScrollUp,정답,493.985235200031,493.985235200031,494.501390599995,NaN,NaN,2,54,여자,no,no,no,yes,no,2023-06-02_11h44.45.965,Main,2022.2.4,59.9979720810407
31,넌 음울해,5,Orange,B,2.25,2.23333333333333,ScrollUp,ScrollDown,Orange.png,3,Negative,Congruent,NaN,NaN,NaN,NaN,0,0,0,0,NaN,NaN,NaN,NaN,NaN,NaN,NaN,NaN,0,0,0,0,NaN,NaN,NaN,NaN,2,0,2,0,0,30,30,30,NaN,NaN,NaN,NaN,NaN,NaN,NaN,NaN,NaN,NaN,,,NaN,NaN,NaN,NaN,495.010328699951,495.010328699951,495.010328699951,495.010328699951,495.010328699951,1.73302469135802,0.886157899978571,ScrollUp,정답,495.901132600033,495.901132600033,496.401485100039,496.908095799969,NaN,2,54,여자,no,no,no,yes,no,2023-06-02_11h44.45.965,Main,2022.2.4,59.9979720810407
32,넌 냉소적이야,5,Green,A,2.91666666666667,2.4,ScrollDown,ScrollUp,Green.png,3,Negative,Incongruent,NaN,NaN,NaN,NaN,0,0,0,0,NaN,NaN,NaN,NaN,NaN,NaN,NaN,NaN,0,0,0,0,NaN,NaN,NaN,NaN,2,0,2,0,0,31,31,31,NaN,NaN,NaN,NaN,NaN,NaN,NaN,NaN,NaN,NaN,,,NaN,NaN,NaN,NaN,496.908095799969,496.908095799969,496.908095799969,496.908095799969,496.908095799969,1.17592592592593,0.96717630000785,ScrollDown,정답,497.884272999945,497.884272999945,498.384506999981,498.891648399993,NaN,2,54,여자,no,no,no,yes,no,2023-06-02_11h44.45.965,Main,2022.2.4,59.9979720810407
33,나를 데려가줘,6,Orange,B,0,0,ScrollDown,ScrollUp,Orange.png,3,NonTarget,NonTarget,NaN,NaN,NaN,NaN,0,0,0,0,NaN,NaN,NaN,NaN,NaN,NaN,NaN,NaN,0,0,0,0,NaN,NaN,NaN,NaN,2,0,2,0,0,32,32,32,NaN,NaN,NaN,NaN,NaN,NaN,NaN,NaN,NaN,NaN,,,NaN,NaN,NaN,NaN,498.891648399993,498.891648399993,498.891648399993,498.891648399993,498.891648399993,1.88888888888889,0.767750300001353,ScrollUp,오답,499.667021799949,499.667021799949,500.167355799931,500.675953899976,NaN,2,54,여자,no,no,no,yes,no,2023-06-02_11h44.45.965,Main,2022.2.4,59.9979720810407
34,넌 쾌활해,1,Green,A,5.54166666666667,5.73333333333333,ScrollDown,ScrollUp,Green.png,3,Positive,Congruent,NaN,NaN,NaN,NaN,0,0,0,0,NaN,NaN,NaN,NaN,NaN,NaN,NaN,NaN,0,0,0,0,NaN,NaN,NaN,NaN,2,0,2,0,0,33,33,33,NaN,NaN,NaN,NaN,NaN,NaN,NaN,NaN,NaN,NaN,,,NaN,NaN,NaN,NaN,500.675953899976,500.675953899976,500.675953899976,500.675953899976,500.675953899976,1.31018518518519,0.75182559993118,ScrollDown,정답,501.434252999956,501.434252999956,501.934691000031,502.436552400002,NaN,2,54,여자,no,no,no,yes,no,2023-06-02_11h44.45.965,Main,2022.2.4,59.9979720810407
35,나를 보내줘,6,Green,A,0,0,ScrollUp,ScrollDown,Green.png,3,NonTarget,NonTarget,NaN,NaN,NaN,NaN,0,0,0,0,NaN,NaN,NaN,NaN,NaN,NaN,NaN,NaN,0,0,0,0,NaN,NaN,NaN,NaN,2,0,2,0,0,34,34,34,NaN,NaN,NaN,NaN,NaN,NaN,NaN,NaN,NaN,NaN,,,NaN,NaN,NaN,NaN,502.436552400002,502.436552400002,502.436552400002,502.436552400002,502.436552400002,1.92592592592593,0.852348600048572,ScrollUp,정답,503.301876700018,503.301876700018,503.817404399975,NaN,NaN,2,54,여자,no,no,no,yes,no,2023-06-02_11h44.45.965,Main,2022.2.4,59.9979720810407
36,넌 명랑해,1,Orange,B,5.73913043478261,5.66666666666667,ScrollUp,ScrollDown,Orange.png,3,Positive,Incongruent,NaN,NaN,NaN,NaN,0,0,0,0,NaN,NaN,NaN,NaN,NaN,NaN,NaN,NaN,0,0,0,0,NaN,NaN,NaN,NaN,2,0,2,0,0,35,35,35,NaN,NaN,NaN,NaN,NaN,NaN,NaN,NaN,NaN,NaN,,,NaN,NaN,NaN,NaN,504.326643400011,504.326643400011,504.326643400011,504.326643400011,504.326643400011,1.95216049382716,1.16934529994614,ScrollUp,정답,505.501918199938,505.501918199938,506.018130799988,NaN,NaN,2,54,여자,no,no,no,yes,no,2023-06-02_11h44.45.965,Main,2022.2.4,59.9979720810407
37,넌 멍해,4,Green,A,2.83333333333333,3.4,ScrollDown,ScrollUp,Green.png,3,Negative,Incongruent,NaN,NaN,NaN,NaN,0,0,0,0,NaN,NaN,NaN,NaN,NaN,NaN,NaN,NaN,0,0,0,0,NaN,NaN,NaN,NaN,2,0,2,0,0,36,36,36,NaN,NaN,NaN,NaN,NaN,NaN,NaN,NaN,NaN,NaN,,,NaN,NaN,NaN,NaN,506.531382699963,506.531382699963,506.531382699963,506.531382699963,506.531382699963,1.22067901234568,0.833312599919736,ScrollDown,정답,507.36771739996,507.36771739996,507.867641699966,508.372661700007,NaN,2,54,여자,no,no,no,yes,no,2023-06-02_11h44.45.965,Main,2022.2.4,59.9979720810407
38,나를 데려가줘,6,Orange,B,0,0,ScrollDown,ScrollUp,Orange.png,3,NonTarget,NonTarget,NaN,NaN,NaN,NaN,0,0,0,0,NaN,NaN,NaN,NaN,NaN,NaN,NaN,NaN,0,0,0,0,NaN,NaN,NaN,NaN,2,0,2,0,0,37,37,37,NaN,NaN,NaN,NaN,NaN,NaN,NaN,NaN,NaN,NaN,,,NaN,NaN,NaN,NaN,508.372661700007,508.372661700007,508.372661700007,508.372661700007,508.372661700007,1.19598765432099,1.90175169997383,ScrollDown,정답,510.284150099964,510.284150099964,510.786835200037,511.293388199992,NaN,2,54,여자,no,no,no,yes,no,2023-06-02_11h44.45.965,Main,2022.2.4,59.9979720810407
39,넌 현명해,2,Green,A,6.54166666666667,4.53333333333333,ScrollDown,ScrollUp,Green.png,3,Positive,Congruent,NaN,NaN,NaN,NaN,0,0,0,0,NaN,NaN,NaN,NaN,NaN,NaN,NaN,NaN,0,0,0,0,NaN,NaN,NaN,NaN,2,0,2,0,0,38,38,38,NaN,NaN,NaN,NaN,NaN,NaN,NaN,NaN,NaN,NaN,,,NaN,NaN,NaN,NaN,511.293388199992,511.293388199992,511.293388199992,511.293388199992,511.293388199992,1.37345679012346,0.804663200047798,ScrollDown,정답,512.10126419994,512.10126419994,512.601148899994,NaN,NaN,2,54,여자,no,no,no,yes,no,2023-06-02_11h44.45.965,Main,2022.2.4,59.9979720810407
40,넌 수줍어,3,Orange,B,3.54166666666667,4.36666666666667,ScrollUp,ScrollDown,Orange.png,3,Neutral,Neutral,NaN,NaN,NaN,NaN,0,0,0,0,NaN,NaN,NaN,NaN,NaN,NaN,NaN,NaN,0,0,0,0,NaN,NaN,NaN,NaN,2,0,2,0,0,39,39,39,NaN,NaN,NaN,NaN,NaN,NaN,NaN,NaN,NaN,NaN,,,NaN,NaN,NaN,NaN,513.127553300001,513.127553300001,513.127553300001,513.127553300001,513.127553300001,1.9429012345679,1.04841050005052,ScrollUp,정답,514.168032099959,514.168032099959,514.669082999928,515.182733700029,NaN,2,54,여자,no,no,no,yes,no,2023-06-02_11h44.45.965,Main,2022.2.4,59.9979720810407
41,나를 데려가줘,6,Orange,B,0,0,ScrollDown,ScrollUp,Orange.png,3,NonTarget,NonTarget,NaN,NaN,NaN,NaN,0,0,0,0,NaN,NaN,NaN,NaN,NaN,NaN,NaN,NaN,0,0,0,0,NaN,NaN,NaN,NaN,2,0,2,0,0,40,40,40,NaN,NaN,NaN,NaN,NaN,NaN,NaN,NaN,NaN,NaN,,,NaN,NaN,NaN,NaN,515.182733700029,515.182733700029,515.182733700029,515.182733700029,515.182733700029,1.21141975308642,0.998402899946086,ScrollDown,정답,516.185468700016,516.185468700016,516.684765300015,517.190385399968,NaN,2,54,여자,no,no,no,yes,no,2023-06-02_11h44.45.965,Main,2022.2.4,59.9979720810407
42,넌 성숙해,2,Orange,B,5.83333333333333,4.53333333333333,ScrollUp,ScrollDown,Orange.png,3,Positive,Incongruent,NaN,NaN,NaN,NaN,0,0,0,0,NaN,NaN,NaN,NaN,NaN,NaN,NaN,NaN,0,0,0,0,NaN,NaN,NaN,NaN,2,0,2,0,0,41,41,41,NaN,NaN,NaN,NaN,NaN,NaN,NaN,NaN,NaN,NaN,,,NaN,NaN,NaN,NaN,517.190385399968,517.190385399968,517.190385399968,517.190385399968,517.190385399968,1.86882716049383,0.868732300004922,ScrollUp,정답,518.069082999951,518.069082999951,518.568965699989,NaN,NaN,2,54,여자,no,no,no,yes,no,2023-06-02_11h44.45.965,Main,2022.2.4,59.9979720810407
NaN,,NaN,,,NaN,NaN,,,,NaN,,,NaN,NaN,NaN,NaN,0,0,0,0,NaN,NaN,NaN,NaN,NaN,NaN,NaN,NaN,0,0,0,0,NaN,NaN,NaN,NaN,2,0,2,0,NaN,NaN,NaN,NaN,NaN,NaN,NaN,NaN,NaN,NaN,NaN,NaN,NaN,NaN,,,NaN,NaN,NaN,NaN,NaN,NaN,NaN,NaN,NaN,NaN,NaN,,,NaN,NaN,NaN,NaN,4,2,54,여자,no,no,no,yes,no,2023-06-02_11h44.45.965,Main,2022.2.4,59.9979720810407
NaN,,NaN,,,NaN,NaN,,,,NaN,,,NaN,NaN,NaN,NaN,0,0,0,0,NaN,NaN,NaN,NaN,NaN,NaN,NaN,NaN,0,0,0,0,NaN,NaN,NaN,NaN,NaN,NaN,NaN,NaN,NaN,NaN,NaN,NaN,NaN,NaN,NaN,NaN,NaN,NaN,NaN,NaN,NaN,NaN,,,NaN,NaN,NaN,NaN,NaN,NaN,NaN,NaN,NaN,NaN,NaN,,,NaN,NaN,NaN,NaN,NaN,2,54,여자,no,no,no,yes,no,2023-06-02_11h44.45.965,Main,2022.2.4,59.9979720810407
NaN,,NaN,,,NaN,NaN,,,,NaN,,,NaN,NaN,NaN,NaN,0,0,0,0,NaN,NaN,NaN,NaN,NaN,NaN,NaN,NaN,NaN,NaN,NaN,NaN,NaN,NaN,NaN,NaN,NaN,NaN,NaN,NaN,NaN,NaN,NaN,NaN,NaN,NaN,NaN,NaN,NaN,NaN,NaN,NaN,NaN,NaN,,,NaN,NaN,NaN,NaN,NaN,NaN,NaN,NaN,NaN,NaN,NaN,,,NaN,NaN,NaN,NaN,NaN,2,54,여자,no,no,no,yes,no,2023-06-02_11h44.45.965,Main,2022.2.4,59.9979720810407
NaN,,NaN,,,NaN,NaN,,,,NaN,,,NaN,NaN,NaN,NaN,1,0,1,0,NaN,NaN,NaN,NaN,NaN,NaN,NaN,NaN,NaN,NaN,NaN,NaN,NaN,NaN,NaN,NaN,NaN,NaN,NaN,NaN,NaN,NaN,NaN,NaN,NaN,NaN,NaN,NaN,NaN,NaN,NaN,NaN,NaN,NaN,,,NaN,NaN,NaN,NaN,NaN,NaN,NaN,NaN,NaN,NaN,NaN,,,NaN,NaN,NaN,NaN,NaN,2,54,여자,no,no,no,yes,no,2023-06-02_11h44.45.965,Main,2022.2.4,59.9979720810407
NaN,,NaN,,,NaN,NaN,,,,NaN,,,NaN,NaN,NaN,NaN,2,0,2,0,NaN,NaN,NaN,NaN,NaN,NaN,NaN,NaN,NaN,NaN,NaN,NaN,NaN,NaN,NaN,NaN,NaN,NaN,NaN,NaN,NaN,NaN,NaN,NaN,NaN,NaN,NaN,NaN,NaN,NaN,NaN,NaN,NaN,NaN,,,NaN,NaN,NaN,NaN,NaN,NaN,NaN,NaN,NaN,NaN,NaN,,,NaN,NaN,NaN,NaN,NaN,2,54,여자,no,no,no,yes,no,2023-06-02_11h44.45.965,Main,2022.2.4,59.9979720810407
NaN,,NaN,,,NaN,NaN,,,,NaN,,,NaN,NaN,NaN,NaN,3,0,3,0,NaN,NaN,NaN,NaN,NaN,NaN,NaN,NaN,NaN,NaN,NaN,NaN,NaN,NaN,NaN,NaN,NaN,NaN,NaN,NaN,NaN,NaN,NaN,NaN,NaN,NaN,NaN,NaN,NaN,NaN,NaN,NaN,NaN,NaN,,,NaN,NaN,NaN,NaN,NaN,NaN,NaN,NaN,NaN,NaN,NaN,,,NaN,NaN,NaN,NaN,NaN,2,54,여자,no,no,no,yes,no,2023-06-02_11h44.45.965,Main,2022.2.4,59.9979720810407
