TrialNum,Word,WordCategory,FishType,WordList,WordValence,WordReputation,CorrectResp,IncorrectResp,FishTypeFile,Round,WordType,Condition,distractor,target,set,ans1,ans2,weather_thisRepN,weather_thisTrialN,weather_thisN,weather_thisIndex,wth_repeat_prac_thisRepN,wth_repeat_prac_thisTrialN,wth_repeat_prac_thisN,wth_repeat_prac_thisIndex,wth_trials_thisRepN,wth_trials_thisTrialN,wth_trials_thisN,wth_trials_thisIndex,total_experiment_thisRepN,total_experiment_thisTrialN,total_experiment_thisN,total_experiment_thisIndex,boat_thisRepN,boat_thisTrialN,boat_thisN,boat_thisIndex,para_thisRepN,para_thisTrialN,para_thisN,para_thisIndex,fish_thisRepN,fish_thisTrialN,fish_thisN,fish_thisIndex,fis_temp_thisRepN,fis_temp_thisTrialN,fis_temp_thisN,fis_temp_thisIndex,fis_round_thisRepN,fis_round_thisTrialN,fis_round_thisN,fis_round_thisIndex,fis_trials_thisRepN,fis_trials_thisTrialN,fis_trials_thisN,fis_trials_thisIndex,fis_main_break_thisRepN,fis_main_break_thisTrialN,fis_main_break_thisN,fis_main_break_thisIndex,para_prac_loop_thisRepN,para_prac_loop_thisTrialN,para_prac_loop_thisN,para_prac_loop_thisIndex,para_main_loop_thisRepN,para_main_loop_thisTrialN,para_main_loop_thisN,para_main_loop_thisIndex,flanker_prac_loop_thisRepN,flanker_prac_loop_thisTrialN,flanker_prac_loop_thisN,flanker_prac_loop_thisIndex,flanker_main_loop_thisRepN,flanker_main_loop_thisTrialN,flanker_main_loop_thisN,flanker_main_loop_thisIndex,stimulus_interval,wth_resp,wth_rt,wth_valence_rating_2_response,wth_self_rating_2_response,wth_valence_rating_response,wth_self_rating_response,fis_slider_2_started,Fish_2_started,fis_WordBox_2_started,fis_Words_2_started,fis_slider_2_response,fis_slider_2_rt,Response_2,Feedback_2,fis_BackGround_Feedback_2_started,fis_Feedbacks_2_started,fis_Feedbacks_2_stopped,fis_BackGround_Feedback_2_stopped,fis_slider_started,fis_BackGround_started,Fish_started,fis_WordBox_started,fis_Words_started,fis_slider_response,fis_slider_rt,Response,Feedback,fis_BackGround_Feedback_started,fis_Feedbacks_started,fis_Feedbacks_stopped,fis_BackGround_Feedback_stopped,fis_roundN,main_prac,st_ans,st_res,st_corr,st_rt,st_rt2,st2_resp_keys,st2_resp_corr,fl_cold,fl_colt,fl_set,fl_dcond,fl_tcond,targ_started,fl_ans,fl_res,fl_corr,fl_rt,fl_rt_2,fl_key_resp_keys,id_,x___,x__,weather,boat,parachute,fish,test_mode,date,expName,psychopyVersion,frameRate
NaN,,NaN,,,NaN,NaN,,,,NaN,,,,,NaN,,,0,0,0,0,0,0,0,0,NaN,NaN,NaN,NaN,NaN,NaN,NaN,NaN,NaN,NaN,NaN,NaN,NaN,NaN,NaN,NaN,NaN,NaN,NaN,NaN,NaN,NaN,NaN,NaN,NaN,NaN,NaN,NaN,NaN,NaN,NaN,NaN,NaN,NaN,NaN,NaN,NaN,NaN,NaN,NaN,NaN,NaN,NaN,NaN,NaN,NaN,NaN,NaN,NaN,NaN,NaN,NaN,30,"gjklug",18.3162147002295,0.621399176954732,0.135802469135802,NaN,NaN,NaN,NaN,NaN,NaN,NaN,NaN,,,NaN,NaN,NaN,NaN,NaN,NaN,NaN,NaN,NaN,NaN,NaN,,,NaN,NaN,NaN,NaN,NaN,,,,NaN,NaN,NaN,,NaN,NaN,NaN,NaN,NaN,NaN,NaN,NaN+0i,NaN+0i,NaN,NaN,NaN,NaN,11,64,남자,yes,yes,yes,yes,no,2023-08-01_10h31.47.839,Main,2022.2.4,60.1405002002043
NaN,,NaN,,,NaN,NaN,,,,NaN,,,,,NaN,,,0,0,0,0,NaN,NaN,NaN,NaN,0,0,0,0,NaN,NaN,NaN,NaN,NaN,NaN,NaN,NaN,NaN,NaN,NaN,NaN,NaN,NaN,NaN,NaN,NaN,NaN,NaN,NaN,NaN,NaN,NaN,NaN,NaN,NaN,NaN,NaN,NaN,NaN,NaN,NaN,NaN,NaN,NaN,NaN,NaN,NaN,NaN,NaN,NaN,NaN,NaN,NaN,NaN,NaN,NaN,NaN,30,"십자기",17.6527791996486,NaN,NaN,0.584362139917695,0.849794238683128,NaN,NaN,NaN,NaN,NaN,NaN,,,NaN,NaN,NaN,NaN,NaN,NaN,NaN,NaN,NaN,NaN,NaN,,,NaN,NaN,NaN,NaN,NaN,,,,NaN,NaN,NaN,,NaN,NaN,NaN,NaN,NaN,NaN,NaN,NaN+0i,NaN+0i,NaN,NaN,NaN,NaN,11,64,남자,yes,yes,yes,yes,no,2023-08-01_10h31.47.839,Main,2022.2.4,60.1405002002043
NaN,,NaN,,,NaN,NaN,,,,NaN,,,,,NaN,,,0,0,0,0,NaN,NaN,NaN,NaN,1,0,1,0,NaN,NaN,NaN,NaN,NaN,NaN,NaN,NaN,NaN,NaN,NaN,NaN,NaN,NaN,NaN,NaN,NaN,NaN,NaN,NaN,NaN,NaN,NaN,NaN,NaN,NaN,NaN,NaN,NaN,NaN,NaN,NaN,NaN,NaN,NaN,NaN,NaN,NaN,NaN,NaN,NaN,NaN,NaN,NaN,NaN,NaN,NaN,NaN,30,"도서관에서 공부해요",30.3641621996649,NaN,NaN,0.0987654320987654,0.868312757201646,NaN,NaN,NaN,NaN,NaN,NaN,,,NaN,NaN,NaN,NaN,NaN,NaN,NaN,NaN,NaN,NaN,NaN,,,NaN,NaN,NaN,NaN,NaN,,,,NaN,NaN,NaN,,NaN,NaN,NaN,NaN,NaN,NaN,NaN,NaN+0i,NaN+0i,NaN,NaN,NaN,NaN,11,64,남자,yes,yes,yes,yes,no,2023-08-01_10h31.47.839,Main,2022.2.4,60.1405002002043
NaN,,NaN,,,NaN,NaN,,,,NaN,,,,,NaN,,,0,0,0,0,NaN,NaN,NaN,NaN,2,0,2,0,NaN,NaN,NaN,NaN,NaN,NaN,NaN,NaN,NaN,NaN,NaN,NaN,NaN,NaN,NaN,NaN,NaN,NaN,NaN,NaN,NaN,NaN,NaN,NaN,NaN,NaN,NaN,NaN,NaN,NaN,NaN,NaN,NaN,NaN,NaN,NaN,NaN,NaN,NaN,NaN,NaN,NaN,NaN,NaN,NaN,NaN,NaN,NaN,30,"즐겁게 북한산을 나홀로 오르고 있다.
자유 그자체임",44.4498263001442,NaN,NaN,1,0.981481481481481,NaN,NaN,NaN,NaN,NaN,NaN,,,NaN,NaN,NaN,NaN,NaN,NaN,NaN,NaN,NaN,NaN,NaN,,,NaN,NaN,NaN,NaN,NaN,,,,NaN,NaN,NaN,,NaN,NaN,NaN,NaN,NaN,NaN,NaN,NaN+0i,NaN+0i,NaN,NaN,NaN,NaN,11,64,남자,yes,yes,yes,yes,no,2023-08-01_10h31.47.839,Main,2022.2.4,60.1405002002043
NaN,,NaN,,,NaN,NaN,,,,NaN,,,,,NaN,,,0,0,0,0,NaN,NaN,NaN,NaN,3,0,3,0,NaN,NaN,NaN,NaN,NaN,NaN,NaN,NaN,NaN,NaN,NaN,NaN,NaN,NaN,NaN,NaN,NaN,NaN,NaN,NaN,NaN,NaN,NaN,NaN,NaN,NaN,NaN,NaN,NaN,NaN,NaN,NaN,NaN,NaN,NaN,NaN,NaN,NaN,NaN,NaN,NaN,NaN,NaN,NaN,NaN,NaN,NaN,NaN,30,"우리 가족, 그들과 관계를 어떻게 설정해야 행복할까?",42.7081373999827,NaN,NaN,-0.288065843621399,1,NaN,NaN,NaN,NaN,NaN,NaN,,,NaN,NaN,NaN,NaN,NaN,NaN,NaN,NaN,NaN,NaN,NaN,,,NaN,NaN,NaN,NaN,NaN,,,,NaN,NaN,NaN,,NaN,NaN,NaN,NaN,NaN,NaN,NaN,NaN+0i,NaN+0i,NaN,NaN,NaN,NaN,11,64,남자,yes,yes,yes,yes,no,2023-08-01_10h31.47.839,Main,2022.2.4,60.1405002002043
1,넌 교활해,5,Green,B,2.33333333333333,2.13333333333333,ScrollUp,ScrollDown,Green.png,NaN,,,,,NaN,,,NaN,NaN,NaN,NaN,NaN,NaN,NaN,NaN,NaN,NaN,NaN,NaN,0,0,0,0,NaN,NaN,NaN,NaN,NaN,NaN,NaN,NaN,0,0,0,0,0,0,0,0,NaN,NaN,NaN,NaN,NaN,NaN,NaN,NaN,NaN,NaN,NaN,NaN,NaN,NaN,NaN,NaN,NaN,NaN,NaN,NaN,NaN,NaN,NaN,NaN,NaN,NaN,NaN,NaN,NaN,"",NaN,NaN,NaN,NaN,NaN,863.821121999994,863.821121999994,863.821121999994,863.821121999994,1.57716049382716,3.23137960024178,ScrollUp,정답,867.056813400239,867.056813400239,867.556022000033,868.077985600103,NaN,NaN,NaN,NaN,NaN,NaN,NaN,,,NaN,NaN,NaN,NaN,NaN,,,,NaN,NaN,NaN,,NaN,NaN,NaN,NaN,NaN,NaN,NaN,NaN+0i,NaN+0i,NaN,NaN,NaN,NaN,11,64,남자,yes,yes,yes,yes,no,2023-08-01_10h31.47.839,Main,2022.2.4,60.1405002002043
2,넌 슬기로워,2,Orange,A,6.16666666666667,4.1,ScrollDown,ScrollUp,Orange.png,NaN,,,,,NaN,,,NaN,NaN,NaN,NaN,NaN,NaN,NaN,NaN,NaN,NaN,NaN,NaN,0,0,0,0,NaN,NaN,NaN,NaN,NaN,NaN,NaN,NaN,0,0,0,0,0,1,1,1,NaN,NaN,NaN,NaN,NaN,NaN,NaN,NaN,NaN,NaN,NaN,NaN,NaN,NaN,NaN,NaN,NaN,NaN,NaN,NaN,NaN,NaN,NaN,NaN,NaN,NaN,NaN,NaN,NaN,"",NaN,NaN,NaN,NaN,NaN,868.077985600103,868.077985600103,868.077985600103,868.077985600103,1.38734567901235,4.22361329989508,ScrollDown,정답,872.289429500233,872.289429500233,872.789366200101,873.295063599944,NaN,NaN,NaN,NaN,NaN,NaN,NaN,,,NaN,NaN,NaN,NaN,NaN,,,,NaN,NaN,NaN,,NaN,NaN,NaN,NaN,NaN,NaN,NaN,NaN+0i,NaN+0i,NaN,NaN,NaN,NaN,11,64,남자,yes,yes,yes,yes,no,2023-08-01_10h31.47.839,Main,2022.2.4,60.1405002002043
3,나를 보내줘,6,Orange,A,0,0,ScrollUp,ScrollDown,Orange.png,NaN,,,,,NaN,,,NaN,NaN,NaN,NaN,NaN,NaN,NaN,NaN,NaN,NaN,NaN,NaN,0,0,0,0,NaN,NaN,NaN,NaN,NaN,NaN,NaN,NaN,0,0,0,0,0,2,2,2,NaN,NaN,NaN,NaN,NaN,NaN,NaN,NaN,NaN,NaN,NaN,NaN,NaN,NaN,NaN,NaN,NaN,NaN,NaN,NaN,NaN,NaN,NaN,NaN,NaN,NaN,NaN,NaN,NaN,"",NaN,NaN,NaN,NaN,NaN,873.295063599944,873.295063599944,873.295063599944,873.295063599944,1.3179012345679,3.24981250008568,ScrollDown,오답,876.555760800373,876.555760800373,877.055881700013,877.561755600385,NaN,NaN,NaN,NaN,NaN,NaN,NaN,,,NaN,NaN,NaN,NaN,NaN,,,,NaN,NaN,NaN,,NaN,NaN,NaN,NaN,NaN,NaN,NaN,NaN+0i,NaN+0i,NaN,NaN,NaN,NaN,11,64,남자,yes,yes,yes,yes,no,2023-08-01_10h31.47.839,Main,2022.2.4,60.1405002002043
4,나를 데려가줘,6,Green,B,0,0,ScrollDown,ScrollUp,Green.png,NaN,,,,,NaN,,,NaN,NaN,NaN,NaN,NaN,NaN,NaN,NaN,NaN,NaN,NaN,NaN,0,0,0,0,NaN,NaN,NaN,NaN,NaN,NaN,NaN,NaN,0,0,0,0,0,3,3,3,NaN,NaN,NaN,NaN,NaN,NaN,NaN,NaN,NaN,NaN,NaN,NaN,NaN,NaN,NaN,NaN,NaN,NaN,NaN,NaN,NaN,NaN,NaN,NaN,NaN,NaN,NaN,NaN,NaN,"",NaN,NaN,NaN,NaN,NaN,877.561755600385,877.561755600385,877.561755600385,877.561755600385,2,3.39924530033022,ScrollUp,오답,880.973584700376,880.973584700376,881.473035800271,881.975847200025,NaN,NaN,NaN,NaN,NaN,NaN,NaN,,,NaN,NaN,NaN,NaN,NaN,,,,NaN,NaN,NaN,,NaN,NaN,NaN,NaN,NaN,NaN,NaN,NaN+0i,NaN+0i,NaN,NaN,NaN,NaN,11,64,남자,yes,yes,yes,yes,no,2023-08-01_10h31.47.839,Main,2022.2.4,60.1405002002043
1,넌 교활해,5,Green,B,2.33333333333333,2.13333333333333,ScrollUp,ScrollDown,Green.png,NaN,,,,,NaN,,,NaN,NaN,NaN,NaN,NaN,NaN,NaN,NaN,NaN,NaN,NaN,NaN,0,0,0,0,NaN,NaN,NaN,NaN,NaN,NaN,NaN,NaN,0,0,0,0,1,0,4,0,NaN,NaN,NaN,NaN,NaN,NaN,NaN,NaN,NaN,NaN,NaN,NaN,NaN,NaN,NaN,NaN,NaN,NaN,NaN,NaN,NaN,NaN,NaN,NaN,NaN,NaN,NaN,NaN,NaN,"",NaN,NaN,NaN,NaN,NaN,881.975847200025,881.975847200025,881.975847200025,881.975847200025,1.87654320987654,7.61704749986529,ScrollUp,정답,889.605771900155,889.605771900155,890.105940100271,890.615517700091,NaN,NaN,NaN,NaN,NaN,NaN,NaN,,,NaN,NaN,NaN,NaN,NaN,,,,NaN,NaN,NaN,,NaN,NaN,NaN,NaN,NaN,NaN,NaN,NaN+0i,NaN+0i,NaN,NaN,NaN,NaN,11,64,남자,yes,yes,yes,yes,no,2023-08-01_10h31.47.839,Main,2022.2.4,60.1405002002043
2,넌 슬기로워,2,Orange,A,6.16666666666667,4.1,ScrollDown,ScrollUp,Orange.png,NaN,,,,,NaN,,,NaN,NaN,NaN,NaN,NaN,NaN,NaN,NaN,NaN,NaN,NaN,NaN,0,0,0,0,NaN,NaN,NaN,NaN,NaN,NaN,NaN,NaN,0,0,0,0,1,1,5,1,NaN,NaN,NaN,NaN,NaN,NaN,NaN,NaN,NaN,NaN,NaN,NaN,NaN,NaN,NaN,NaN,NaN,NaN,NaN,NaN,NaN,NaN,NaN,NaN,NaN,NaN,NaN,NaN,NaN,"",NaN,NaN,NaN,NaN,NaN,890.615517700091,890.615517700091,890.615517700091,890.615517700091,1.2608024691358,1.93231229996309,ScrollDown,정답,892.555797300301,892.555797300301,893.055957100354,893.559621500317,NaN,NaN,NaN,NaN,NaN,NaN,NaN,,,NaN,NaN,NaN,NaN,NaN,,,,NaN,NaN,NaN,,NaN,NaN,NaN,NaN,NaN,NaN,NaN,NaN+0i,NaN+0i,NaN,NaN,NaN,NaN,11,64,남자,yes,yes,yes,yes,no,2023-08-01_10h31.47.839,Main,2022.2.4,60.1405002002043
3,나를 보내줘,6,Orange,A,0,0,ScrollUp,ScrollDown,Orange.png,NaN,,,,,NaN,,,NaN,NaN,NaN,NaN,NaN,NaN,NaN,NaN,NaN,NaN,NaN,NaN,0,0,0,0,NaN,NaN,NaN,NaN,NaN,NaN,NaN,NaN,0,0,0,0,1,2,6,2,NaN,NaN,NaN,NaN,NaN,NaN,NaN,NaN,NaN,NaN,NaN,NaN,NaN,NaN,NaN,NaN,NaN,NaN,NaN,NaN,NaN,NaN,NaN,NaN,NaN,NaN,NaN,NaN,NaN,"",NaN,NaN,NaN,NaN,NaN,893.559621500317,893.559621500317,893.559621500317,893.559621500317,1.9891975308642,3.46628799987957,ScrollUp,정답,897.039430000354,897.039430000354,897.539282500278,898.046336899977,NaN,NaN,NaN,NaN,NaN,NaN,NaN,,,NaN,NaN,NaN,NaN,NaN,,,,NaN,NaN,NaN,,NaN,NaN,NaN,NaN,NaN,NaN,NaN,NaN+0i,NaN+0i,NaN,NaN,NaN,NaN,11,64,남자,yes,yes,yes,yes,no,2023-08-01_10h31.47.839,Main,2022.2.4,60.1405002002043
4,나를 데려가줘,6,Green,B,0,0,ScrollDown,ScrollUp,Green.png,NaN,,,,,NaN,,,NaN,NaN,NaN,NaN,NaN,NaN,NaN,NaN,NaN,NaN,NaN,NaN,0,0,0,0,NaN,NaN,NaN,NaN,NaN,NaN,NaN,NaN,0,0,0,0,1,3,7,3,NaN,NaN,NaN,NaN,NaN,NaN,NaN,NaN,NaN,NaN,NaN,NaN,NaN,NaN,NaN,NaN,NaN,NaN,NaN,NaN,NaN,NaN,NaN,NaN,NaN,NaN,NaN,NaN,NaN,"",NaN,NaN,NaN,NaN,NaN,898.046336899977,898.046336899977,898.046336899977,898.046336899977,1.11882716049383,3.68164520012215,ScrollDown,정답,901.739179400261,901.739179400261,902.240272300318,902.742775600404,NaN,NaN,NaN,NaN,NaN,NaN,NaN,,,NaN,NaN,NaN,NaN,NaN,,,,NaN,NaN,NaN,,NaN,NaN,NaN,NaN,NaN,NaN,NaN,NaN+0i,NaN+0i,NaN,NaN,NaN,NaN,11,64,남자,yes,yes,yes,yes,no,2023-08-01_10h31.47.839,Main,2022.2.4,60.1405002002043
1,넌 교활해,5,Green,B,2.33333333333333,2.13333333333333,ScrollUp,ScrollDown,Green.png,NaN,,,,,NaN,,,NaN,NaN,NaN,NaN,NaN,NaN,NaN,NaN,NaN,NaN,NaN,NaN,0,0,0,0,NaN,NaN,NaN,NaN,NaN,NaN,NaN,NaN,0,0,0,0,2,0,8,0,NaN,NaN,NaN,NaN,NaN,NaN,NaN,NaN,NaN,NaN,NaN,NaN,NaN,NaN,NaN,NaN,NaN,NaN,NaN,NaN,NaN,NaN,NaN,NaN,NaN,NaN,NaN,NaN,NaN,"",NaN,NaN,NaN,NaN,NaN,902.742775600404,902.742775600404,902.742775600404,902.742775600404,1.72993827160494,7.04959500022233,ScrollUp,정답,909.805775800254,909.805775800254,910.306019000243,910.814364300109,NaN,NaN,NaN,NaN,NaN,NaN,NaN,,,NaN,NaN,NaN,NaN,NaN,,,,NaN,NaN,NaN,,NaN,NaN,NaN,NaN,NaN,NaN,NaN,NaN+0i,NaN+0i,NaN,NaN,NaN,NaN,11,64,남자,yes,yes,yes,yes,no,2023-08-01_10h31.47.839,Main,2022.2.4,60.1405002002043
2,넌 슬기로워,2,Orange,A,6.16666666666667,4.1,ScrollDown,ScrollUp,Orange.png,NaN,,,,,NaN,,,NaN,NaN,NaN,NaN,NaN,NaN,NaN,NaN,NaN,NaN,NaN,NaN,0,0,0,0,NaN,NaN,NaN,NaN,NaN,NaN,NaN,NaN,0,0,0,0,2,1,9,1,NaN,NaN,NaN,NaN,NaN,NaN,NaN,NaN,NaN,NaN,NaN,NaN,NaN,NaN,NaN,NaN,NaN,NaN,NaN,NaN,NaN,NaN,NaN,NaN,NaN,NaN,NaN,NaN,NaN,"",NaN,NaN,NaN,NaN,NaN,910.814364300109,910.814364300109,910.814364300109,910.814364300109,1.43364197530864,3.16616629995406,ScrollDown,정답,913.989733300172,913.989733300172,914.489162000362,914.994807000272,NaN,NaN,NaN,NaN,NaN,NaN,NaN,,,NaN,NaN,NaN,NaN,NaN,,,,NaN,NaN,NaN,,NaN,NaN,NaN,NaN,NaN,NaN,NaN,NaN+0i,NaN+0i,NaN,NaN,NaN,NaN,11,64,남자,yes,yes,yes,yes,no,2023-08-01_10h31.47.839,Main,2022.2.4,60.1405002002043
3,나를 보내줘,6,Orange,A,0,0,ScrollUp,ScrollDown,Orange.png,NaN,,,,,NaN,,,NaN,NaN,NaN,NaN,NaN,NaN,NaN,NaN,NaN,NaN,NaN,NaN,0,0,0,0,NaN,NaN,NaN,NaN,NaN,NaN,NaN,NaN,0,0,0,0,2,2,10,2,NaN,NaN,NaN,NaN,NaN,NaN,NaN,NaN,NaN,NaN,NaN,NaN,NaN,NaN,NaN,NaN,NaN,NaN,NaN,NaN,NaN,NaN,NaN,NaN,NaN,NaN,NaN,NaN,NaN,"",NaN,NaN,NaN,NaN,NaN,914.994807000272,914.994807000272,914.994807000272,914.994807000272,2,2.75060369959101,ScrollUp,정답,917.756069300231,917.756069300231,918.255769800395,918.759981200099,NaN,NaN,NaN,NaN,NaN,NaN,NaN,,,NaN,NaN,NaN,NaN,NaN,,,,NaN,NaN,NaN,,NaN,NaN,NaN,NaN,NaN,NaN,NaN,NaN+0i,NaN+0i,NaN,NaN,NaN,NaN,11,64,남자,yes,yes,yes,yes,no,2023-08-01_10h31.47.839,Main,2022.2.4,60.1405002002043
4,나를 데려가줘,6,Green,B,0,0,ScrollDown,ScrollUp,Green.png,NaN,,,,,NaN,,,NaN,NaN,NaN,NaN,NaN,NaN,NaN,NaN,NaN,NaN,NaN,NaN,0,0,0,0,NaN,NaN,NaN,NaN,NaN,NaN,NaN,NaN,0,0,0,0,2,3,11,3,NaN,NaN,NaN,NaN,NaN,NaN,NaN,NaN,NaN,NaN,NaN,NaN,NaN,NaN,NaN,NaN,NaN,NaN,NaN,NaN,NaN,NaN,NaN,NaN,NaN,NaN,NaN,NaN,NaN,"",NaN,NaN,NaN,NaN,NaN,918.759981200099,918.759981200099,918.759981200099,918.759981200099,1.26851851851852,3.03264740016311,ScrollDown,정답,921.805817500222,921.805817500222,922.306325600017,922.806924700271,NaN,NaN,NaN,NaN,NaN,NaN,NaN,,,NaN,NaN,NaN,NaN,NaN,,,,NaN,NaN,NaN,,NaN,NaN,NaN,NaN,NaN,NaN,NaN,NaN+0i,NaN+0i,NaN,NaN,NaN,NaN,11,64,남자,yes,yes,yes,yes,no,2023-08-01_10h31.47.839,Main,2022.2.4,60.1405002002043
1,넌 따뜻해,1,Green,B,6.08333333333333,5.6,ScrollUp,ScrollDown,Green.png,1,Positive,Incongruent,,,NaN,,,NaN,NaN,NaN,NaN,NaN,NaN,NaN,NaN,NaN,NaN,NaN,NaN,0,0,0,0,NaN,NaN,NaN,NaN,NaN,NaN,NaN,NaN,0,0,0,0,NaN,NaN,NaN,NaN,0,0,0,0,0,0,0,0,NaN,NaN,NaN,NaN,NaN,NaN,NaN,NaN,NaN,NaN,NaN,NaN,NaN,NaN,NaN,NaN,NaN,NaN,NaN,NaN,NaN,"",NaN,NaN,NaN,NaN,NaN,NaN,NaN,NaN,NaN,NaN,NaN,,,NaN,NaN,NaN,NaN,942.121982200071,942.121982200071,942.121982200071,942.121982200071,942.121982200071,1.91975308641975,3.07291779993102,ScrollUp,정답,945.190137700178,945.190137700178,945.689253600314,946.211077600252,NaN,,,,NaN,NaN,NaN,,NaN,NaN,NaN,NaN,NaN,NaN,NaN,NaN+0i,NaN+0i,NaN,NaN,NaN,NaN,11,64,남자,yes,yes,yes,yes,no,2023-08-01_10h31.47.839,Main,2022.2.4,60.1405002002043
2,넌 기품있어,2,Green,B,5.79166666666667,4.5,ScrollUp,ScrollDown,Green.png,1,Positive,Incongruent,,,NaN,,,NaN,NaN,NaN,NaN,NaN,NaN,NaN,NaN,NaN,NaN,NaN,NaN,0,0,0,0,NaN,NaN,NaN,NaN,NaN,NaN,NaN,NaN,0,0,0,0,NaN,NaN,NaN,NaN,0,0,0,0,0,1,1,1,NaN,NaN,NaN,NaN,NaN,NaN,NaN,NaN,NaN,NaN,NaN,NaN,NaN,NaN,NaN,NaN,NaN,NaN,NaN,NaN,NaN,"",NaN,NaN,NaN,NaN,NaN,NaN,NaN,NaN,NaN,NaN,NaN,,,NaN,NaN,NaN,NaN,946.211077600252,946.211077600252,946.211077600252,946.211077600252,946.211077600252,1.91820987654321,1.81667790003121,ScrollUp,정답,948.022735700011,948.022735700011,948.522641400341,949.047565400135,NaN,,,,NaN,NaN,NaN,,NaN,NaN,NaN,NaN,NaN,NaN,NaN,NaN+0i,NaN+0i,NaN,NaN,NaN,NaN,11,64,남자,yes,yes,yes,yes,no,2023-08-01_10h31.47.839,Main,2022.2.4,60.1405002002043
3,나를 보내줘,6,Orange,A,0,0,ScrollUp,ScrollDown,Orange.png,1,NonTarget,NonTarget,,,NaN,,,NaN,NaN,NaN,NaN,NaN,NaN,NaN,NaN,NaN,NaN,NaN,NaN,0,0,0,0,NaN,NaN,NaN,NaN,NaN,NaN,NaN,NaN,0,0,0,0,NaN,NaN,NaN,NaN,0,0,0,0,0,2,2,2,NaN,NaN,NaN,NaN,NaN,NaN,NaN,NaN,NaN,NaN,NaN,NaN,NaN,NaN,NaN,NaN,NaN,NaN,NaN,NaN,NaN,"",NaN,NaN,NaN,NaN,NaN,NaN,NaN,NaN,NaN,NaN,NaN,,,NaN,NaN,NaN,NaN,949.047565400135,949.047565400135,949.047565400135,949.047565400135,949.047565400135,1.91203703703704,2.34921680018306,ScrollUp,정답,951.389091900084,951.389091900084,951.889015499968,952.412365700118,NaN,,,,NaN,NaN,NaN,,NaN,NaN,NaN,NaN,NaN,NaN,NaN,NaN+0i,NaN+0i,NaN,NaN,NaN,NaN,11,64,남자,yes,yes,yes,yes,no,2023-08-01_10h31.47.839,Main,2022.2.4,60.1405002002043
4,넌 수동적이야,4,Orange,A,2.83333333333333,2.93333333333333,ScrollDown,ScrollUp,Orange.png,1,Negative,Incongruent,,,NaN,,,NaN,NaN,NaN,NaN,NaN,NaN,NaN,NaN,NaN,NaN,NaN,NaN,0,0,0,0,NaN,NaN,NaN,NaN,NaN,NaN,NaN,NaN,0,0,0,0,NaN,NaN,NaN,NaN,0,0,0,0,0,3,3,3,NaN,NaN,NaN,NaN,NaN,NaN,NaN,NaN,NaN,NaN,NaN,NaN,NaN,NaN,NaN,NaN,NaN,NaN,NaN,NaN,NaN,"",NaN,NaN,NaN,NaN,NaN,NaN,NaN,NaN,NaN,NaN,NaN,,,NaN,NaN,NaN,NaN,952.412365700118,952.412365700118,952.412365700118,952.412365700118,952.412365700118,1.11728395061728,2.39968799985945,ScrollDown,정답,954.805796900298,954.805796900298,955.305860300083,955.82922230009,NaN,,,,NaN,NaN,NaN,,NaN,NaN,NaN,NaN,NaN,NaN,NaN,NaN+0i,NaN+0i,NaN,NaN,NaN,NaN,11,64,남자,yes,yes,yes,yes,no,2023-08-01_10h31.47.839,Main,2022.2.4,60.1405002002043
5,넌 사심이 없어,3,Green,B,4.91666666666667,4.33333333333333,ScrollUp,ScrollDown,Green.png,1,Neutral,Neutral,,,NaN,,,NaN,NaN,NaN,NaN,NaN,NaN,NaN,NaN,NaN,NaN,NaN,NaN,0,0,0,0,NaN,NaN,NaN,NaN,NaN,NaN,NaN,NaN,0,0,0,0,NaN,NaN,NaN,NaN,0,0,0,0,0,4,4,4,NaN,NaN,NaN,NaN,NaN,NaN,NaN,NaN,NaN,NaN,NaN,NaN,NaN,NaN,NaN,NaN,NaN,NaN,NaN,NaN,NaN,"",NaN,NaN,NaN,NaN,NaN,NaN,NaN,NaN,NaN,NaN,NaN,,,NaN,NaN,NaN,NaN,955.82922230009,955.82922230009,955.82922230009,955.82922230009,955.82922230009,1.91358024691358,1.39905539993197,ScrollUp,정답,957.22253810009,957.22253810009,957.72317330027,958.245413800236,NaN,,,,NaN,NaN,NaN,,NaN,NaN,NaN,NaN,NaN,NaN,NaN,NaN+0i,NaN+0i,NaN,NaN,NaN,NaN,11,64,남자,yes,yes,yes,yes,no,2023-08-01_10h31.47.839,Main,2022.2.4,60.1405002002043
6,넌 헤퍼,5,Orange,A,2.45833333333333,2.23333333333333,ScrollDown,ScrollUp,Orange.png,1,Negative,Incongruent,,,NaN,,,NaN,NaN,NaN,NaN,NaN,NaN,NaN,NaN,NaN,NaN,NaN,NaN,0,0,0,0,NaN,NaN,NaN,NaN,NaN,NaN,NaN,NaN,0,0,0,0,NaN,NaN,NaN,NaN,0,0,0,0,0,5,5,5,NaN,NaN,NaN,NaN,NaN,NaN,NaN,NaN,NaN,NaN,NaN,NaN,NaN,NaN,NaN,NaN,NaN,NaN,NaN,NaN,NaN,"",NaN,NaN,NaN,NaN,NaN,NaN,NaN,NaN,NaN,NaN,NaN,,,NaN,NaN,NaN,NaN,958.245413800236,958.245413800236,958.245413800236,958.245413800236,958.245413800236,1.11265432098765,1.81601009983569,ScrollDown,정답,960.056167200208,960.056167200208,960.555766700301,961.077390400227,NaN,,,,NaN,NaN,NaN,,NaN,NaN,NaN,NaN,NaN,NaN,NaN,NaN+0i,NaN+0i,NaN,NaN,NaN,NaN,11,64,남자,yes,yes,yes,yes,no,2023-08-01_10h31.47.839,Main,2022.2.4,60.1405002002043
7,넌 말쑥해,3,Orange,A,4.83333333333333,4.33333333333333,ScrollDown,ScrollUp,Orange.png,1,Neutral,Neutral,,,NaN,,,NaN,NaN,NaN,NaN,NaN,NaN,NaN,NaN,NaN,NaN,NaN,NaN,0,0,0,0,NaN,NaN,NaN,NaN,NaN,NaN,NaN,NaN,0,0,0,0,NaN,NaN,NaN,NaN,0,0,0,0,0,6,6,6,NaN,NaN,NaN,NaN,NaN,NaN,NaN,NaN,NaN,NaN,NaN,NaN,NaN,NaN,NaN,NaN,NaN,NaN,NaN,NaN,NaN,"",NaN,NaN,NaN,NaN,NaN,NaN,NaN,NaN,NaN,NaN,NaN,,,NaN,NaN,NaN,NaN,961.077390400227,961.077390400227,961.077390400227,961.077390400227,961.077390400227,1.23765432098765,1.71588400006294,ScrollDown,정답,962.789505900349,962.789505900349,963.289187800139,963.803679500241,NaN,,,,NaN,NaN,NaN,,NaN,NaN,NaN,NaN,NaN,NaN,NaN,NaN+0i,NaN+0i,NaN,NaN,NaN,NaN,11,64,남자,yes,yes,yes,yes,no,2023-08-01_10h31.47.839,Main,2022.2.4,60.1405002002043
8,넌 투덜거려,5,Green,B,2.54166666666667,2.26666666666667,ScrollUp,ScrollDown,Green.png,1,Negative,Congruent,,,NaN,,,NaN,NaN,NaN,NaN,NaN,NaN,NaN,NaN,NaN,NaN,NaN,NaN,0,0,0,0,NaN,NaN,NaN,NaN,NaN,NaN,NaN,NaN,0,0,0,0,NaN,NaN,NaN,NaN,0,0,0,0,0,7,7,7,NaN,NaN,NaN,NaN,NaN,NaN,NaN,NaN,NaN,NaN,NaN,NaN,NaN,NaN,NaN,NaN,NaN,NaN,NaN,NaN,NaN,"",NaN,NaN,NaN,NaN,NaN,NaN,NaN,NaN,NaN,NaN,NaN,,,NaN,NaN,NaN,NaN,963.803679500241,963.803679500241,963.803679500241,963.803679500241,963.803679500241,1.93827160493827,1.46478259982541,ScrollUp,정답,965.272730300203,965.272730300203,965.773137300275,966.278341700323,NaN,,,,NaN,NaN,NaN,,NaN,NaN,NaN,NaN,NaN,NaN,NaN,NaN+0i,NaN+0i,NaN,NaN,NaN,NaN,11,64,남자,yes,yes,yes,yes,no,2023-08-01_10h31.47.839,Main,2022.2.4,60.1405002002043
9,넌 적극적이야,1,Orange,A,5.70833333333333,5.53333333333333,ScrollDown,ScrollUp,Orange.png,1,Positive,Congruent,,,NaN,,,NaN,NaN,NaN,NaN,NaN,NaN,NaN,NaN,NaN,NaN,NaN,NaN,0,0,0,0,NaN,NaN,NaN,NaN,NaN,NaN,NaN,NaN,0,0,0,0,NaN,NaN,NaN,NaN,0,0,0,0,0,8,8,8,NaN,NaN,NaN,NaN,NaN,NaN,NaN,NaN,NaN,NaN,NaN,NaN,NaN,NaN,NaN,NaN,NaN,NaN,NaN,NaN,NaN,"",NaN,NaN,NaN,NaN,NaN,NaN,NaN,NaN,NaN,NaN,NaN,,,NaN,NaN,NaN,NaN,966.278341700323,966.278341700323,966.278341700323,966.278341700323,966.278341700323,1.2391975308642,2.26825940003619,ScrollDown,정답,968.556126800366,968.556126800366,969.056003100239,969.577128299978,NaN,,,,NaN,NaN,NaN,,NaN,NaN,NaN,NaN,NaN,NaN,NaN,NaN+0i,NaN+0i,NaN,NaN,NaN,NaN,11,64,남자,yes,yes,yes,yes,no,2023-08-01_10h31.47.839,Main,2022.2.4,60.1405002002043
10,넌 재미없어,4,Green,B,2.625,2.96666666666667,ScrollUp,ScrollDown,Green.png,1,Negative,Congruent,,,NaN,,,NaN,NaN,NaN,NaN,NaN,NaN,NaN,NaN,NaN,NaN,NaN,NaN,0,0,0,0,NaN,NaN,NaN,NaN,NaN,NaN,NaN,NaN,0,0,0,0,NaN,NaN,NaN,NaN,0,0,0,0,0,9,9,9,NaN,NaN,NaN,NaN,NaN,NaN,NaN,NaN,NaN,NaN,NaN,NaN,NaN,NaN,NaN,NaN,NaN,NaN,NaN,NaN,NaN,"",NaN,NaN,NaN,NaN,NaN,NaN,NaN,NaN,NaN,NaN,NaN,,,NaN,NaN,NaN,NaN,969.577128299978,969.577128299978,969.577128299978,969.577128299978,969.577128299978,2,1.53322630003095,ScrollUp,정답,971.105804400053,971.105804400053,971.60586690018,972.11610160023,NaN,,,,NaN,NaN,NaN,,NaN,NaN,NaN,NaN,NaN,NaN,NaN,NaN+0i,NaN+0i,NaN,NaN,NaN,NaN,11,64,남자,yes,yes,yes,yes,no,2023-08-01_10h31.47.839,Main,2022.2.4,60.1405002002043
11,넌 명석해,2,Orange,A,5.875,4.03333333333333,ScrollDown,ScrollUp,Orange.png,1,Positive,Congruent,,,NaN,,,NaN,NaN,NaN,NaN,NaN,NaN,NaN,NaN,NaN,NaN,NaN,NaN,0,0,0,0,NaN,NaN,NaN,NaN,NaN,NaN,NaN,NaN,0,0,0,0,NaN,NaN,NaN,NaN,0,0,0,0,0,10,10,10,NaN,NaN,NaN,NaN,NaN,NaN,NaN,NaN,NaN,NaN,NaN,NaN,NaN,NaN,NaN,NaN,NaN,NaN,NaN,NaN,NaN,"",NaN,NaN,NaN,NaN,NaN,NaN,NaN,NaN,NaN,NaN,NaN,,,NaN,NaN,NaN,NaN,972.11610160023,972.11610160023,972.11610160023,972.11610160023,972.11610160023,1.17592592592593,1.33486890001222,ScrollDown,정답,973.455674200319,973.455674200319,973.957046000287,974.465703700203,NaN,,,,NaN,NaN,NaN,,NaN,NaN,NaN,NaN,NaN,NaN,NaN,NaN+0i,NaN+0i,NaN,NaN,NaN,NaN,11,64,남자,yes,yes,yes,yes,no,2023-08-01_10h31.47.839,Main,2022.2.4,60.1405002002043
12,나를 데려가줘,6,Green,B,0,0,ScrollDown,ScrollUp,Green.png,1,NonTarget,NonTarget,,,NaN,,,NaN,NaN,NaN,NaN,NaN,NaN,NaN,NaN,NaN,NaN,NaN,NaN,0,0,0,0,NaN,NaN,NaN,NaN,NaN,NaN,NaN,NaN,0,0,0,0,NaN,NaN,NaN,NaN,0,0,0,0,0,11,11,11,NaN,NaN,NaN,NaN,NaN,NaN,NaN,NaN,NaN,NaN,NaN,NaN,NaN,NaN,NaN,NaN,NaN,NaN,NaN,NaN,NaN,"",NaN,NaN,NaN,NaN,NaN,NaN,NaN,NaN,NaN,NaN,NaN,,,NaN,NaN,NaN,NaN,974.465703700203,974.465703700203,974.465703700203,974.465703700203,974.465703700203,1.27932098765432,2.28191460017115,ScrollDown,정답,976.755974899977,976.755974899977,977.255811400246,977.769434200134,NaN,,,,NaN,NaN,NaN,,NaN,NaN,NaN,NaN,NaN,NaN,NaN,NaN+0i,NaN+0i,NaN,NaN,NaN,NaN,11,64,남자,yes,yes,yes,yes,no,2023-08-01_10h31.47.839,Main,2022.2.4,60.1405002002043
13,넌 소심해,4,Orange,A,3,3.1,ScrollDown,ScrollUp,Orange.png,1,Negative,Incongruent,,,NaN,,,NaN,NaN,NaN,NaN,NaN,NaN,NaN,NaN,NaN,NaN,NaN,NaN,0,0,0,0,NaN,NaN,NaN,NaN,NaN,NaN,NaN,NaN,0,0,0,0,NaN,NaN,NaN,NaN,0,0,0,0,0,12,12,12,NaN,NaN,NaN,NaN,NaN,NaN,NaN,NaN,NaN,NaN,NaN,NaN,NaN,NaN,NaN,NaN,NaN,NaN,NaN,NaN,NaN,"",NaN,NaN,NaN,NaN,NaN,NaN,NaN,NaN,NaN,NaN,NaN,,,NaN,NaN,NaN,NaN,977.769434200134,977.769434200134,977.769434200134,977.769434200134,977.769434200134,1.22530864197531,1.599885399919,ScrollDown,정답,979.372804900166,979.372804900166,979.873186800163,980.38433880033,NaN,,,,NaN,NaN,NaN,,NaN,NaN,NaN,NaN,NaN,NaN,NaN,NaN+0i,NaN+0i,NaN,NaN,NaN,NaN,11,64,남자,yes,yes,yes,yes,no,2023-08-01_10h31.47.839,Main,2022.2.4,60.1405002002043
14,넌 합리적이야,2,Orange,A,5.58333333333333,4.73333333333333,ScrollDown,ScrollUp,Orange.png,1,Positive,Congruent,,,NaN,,,NaN,NaN,NaN,NaN,NaN,NaN,NaN,NaN,NaN,NaN,NaN,NaN,0,0,0,0,NaN,NaN,NaN,NaN,NaN,NaN,NaN,NaN,0,0,0,0,NaN,NaN,NaN,NaN,0,0,0,0,0,13,13,13,NaN,NaN,NaN,NaN,NaN,NaN,NaN,NaN,NaN,NaN,NaN,NaN,NaN,NaN,NaN,NaN,NaN,NaN,NaN,NaN,NaN,"",NaN,NaN,NaN,NaN,NaN,NaN,NaN,NaN,NaN,NaN,NaN,,,NaN,NaN,NaN,NaN,980.38433880033,980.38433880033,980.38433880033,980.38433880033,980.38433880033,1.14969135802469,1.43319030012935,ScrollDown,정답,981.822626600042,981.822626600042,982.322751699947,982.832571899984,NaN,,,,NaN,NaN,NaN,,NaN,NaN,NaN,NaN,NaN,NaN,NaN,NaN+0i,NaN+0i,NaN,NaN,NaN,NaN,11,64,남자,yes,yes,yes,yes,no,2023-08-01_10h31.47.839,Main,2022.2.4,60.1405002002043
15,넌 무자비해,5,Green,B,2.33333333333333,2.1,ScrollUp,ScrollDown,Green.png,1,Negative,Congruent,,,NaN,,,NaN,NaN,NaN,NaN,NaN,NaN,NaN,NaN,NaN,NaN,NaN,NaN,0,0,0,0,NaN,NaN,NaN,NaN,NaN,NaN,NaN,NaN,0,0,0,0,NaN,NaN,NaN,NaN,0,0,0,0,0,14,14,14,NaN,NaN,NaN,NaN,NaN,NaN,NaN,NaN,NaN,NaN,NaN,NaN,NaN,NaN,NaN,NaN,NaN,NaN,NaN,NaN,NaN,"",NaN,NaN,NaN,NaN,NaN,NaN,NaN,NaN,NaN,NaN,NaN,,,NaN,NaN,NaN,NaN,982.832571899984,982.832571899984,982.832571899984,982.832571899984,982.832571899984,1.59259259259259,1.68170990003273,ScrollUp,정답,984.522530400194,984.522530400194,985.023253499996,985.532848800067,NaN,,,,NaN,NaN,NaN,,NaN,NaN,NaN,NaN,NaN,NaN,NaN,NaN+0i,NaN+0i,NaN,NaN,NaN,NaN,11,64,남자,yes,yes,yes,yes,no,2023-08-01_10h31.47.839,Main,2022.2.4,60.1405002002043
16,나를 보내줘,6,Orange,A,0,0,ScrollUp,ScrollDown,Orange.png,1,NonTarget,NonTarget,,,NaN,,,NaN,NaN,NaN,NaN,NaN,NaN,NaN,NaN,NaN,NaN,NaN,NaN,0,0,0,0,NaN,NaN,NaN,NaN,NaN,NaN,NaN,NaN,0,0,0,0,NaN,NaN,NaN,NaN,0,0,0,0,0,15,15,15,NaN,NaN,NaN,NaN,NaN,NaN,NaN,NaN,NaN,NaN,NaN,NaN,NaN,NaN,NaN,NaN,NaN,NaN,NaN,NaN,NaN,"",NaN,NaN,NaN,NaN,NaN,NaN,NaN,NaN,NaN,NaN,NaN,,,NaN,NaN,NaN,NaN,985.532848800067,985.532848800067,985.532848800067,985.532848800067,985.532848800067,2,2.4818393997848,ScrollUp,정답,988.023125300184,988.023125300184,988.522756100167,989.037114700302,NaN,,,,NaN,NaN,NaN,,NaN,NaN,NaN,NaN,NaN,NaN,NaN,NaN+0i,NaN+0i,NaN,NaN,NaN,NaN,11,64,남자,yes,yes,yes,yes,no,2023-08-01_10h31.47.839,Main,2022.2.4,60.1405002002043
17,넌 현실적이야,3,Green,B,4.60869565217391,4.76666666666667,ScrollUp,ScrollDown,Green.png,1,Neutral,Neutral,,,NaN,,,NaN,NaN,NaN,NaN,NaN,NaN,NaN,NaN,NaN,NaN,NaN,NaN,0,0,0,0,NaN,NaN,NaN,NaN,NaN,NaN,NaN,NaN,0,0,0,0,NaN,NaN,NaN,NaN,0,0,0,0,0,16,16,16,NaN,NaN,NaN,NaN,NaN,NaN,NaN,NaN,NaN,NaN,NaN,NaN,NaN,NaN,NaN,NaN,NaN,NaN,NaN,NaN,NaN,"",NaN,NaN,NaN,NaN,NaN,NaN,NaN,NaN,NaN,NaN,NaN,,,NaN,NaN,NaN,NaN,989.037114700302,989.037114700302,989.037114700302,989.037114700302,989.037114700302,1.05401234567901,1.5987590001896,ScrollDown,오답,990.639078900218,990.639078900218,991.139775800053,991.650022500195,NaN,,,,NaN,NaN,NaN,,NaN,NaN,NaN,NaN,NaN,NaN,NaN,NaN+0i,NaN+0i,NaN,NaN,NaN,NaN,11,64,남자,yes,yes,yes,yes,no,2023-08-01_10h31.47.839,Main,2022.2.4,60.1405002002043
18,넌 의리있어,1,Green,B,5.83333333333333,5.63333333333333,ScrollUp,ScrollDown,Green.png,1,Positive,Incongruent,,,NaN,,,NaN,NaN,NaN,NaN,NaN,NaN,NaN,NaN,NaN,NaN,NaN,NaN,0,0,0,0,NaN,NaN,NaN,NaN,NaN,NaN,NaN,NaN,0,0,0,0,NaN,NaN,NaN,NaN,0,0,0,0,0,17,17,17,NaN,NaN,NaN,NaN,NaN,NaN,NaN,NaN,NaN,NaN,NaN,NaN,NaN,NaN,NaN,NaN,NaN,NaN,NaN,NaN,NaN,"",NaN,NaN,NaN,NaN,NaN,NaN,NaN,NaN,NaN,NaN,NaN,,,NaN,NaN,NaN,NaN,991.650022500195,991.650022500195,991.650022500195,991.650022500195,991.650022500195,2,1.74916270002723,ScrollUp,정답,993.405817000195,993.405817000195,993.905953200068,994.433942300268,NaN,,,,NaN,NaN,NaN,,NaN,NaN,NaN,NaN,NaN,NaN,NaN,NaN+0i,NaN+0i,NaN,NaN,NaN,NaN,11,64,남자,yes,yes,yes,yes,no,2023-08-01_10h31.47.839,Main,2022.2.4,60.1405002002043
19,넌 신경과민이야,5,Orange,A,2.54166666666667,2.16666666666667,ScrollDown,ScrollUp,Orange.png,1,Negative,Incongruent,,,NaN,,,NaN,NaN,NaN,NaN,NaN,NaN,NaN,NaN,NaN,NaN,NaN,NaN,0,0,0,0,NaN,NaN,NaN,NaN,NaN,NaN,NaN,NaN,0,0,0,0,NaN,NaN,NaN,NaN,0,0,0,0,0,18,18,18,NaN,NaN,NaN,NaN,NaN,NaN,NaN,NaN,NaN,NaN,NaN,NaN,NaN,NaN,NaN,NaN,NaN,NaN,NaN,NaN,NaN,"",NaN,NaN,NaN,NaN,NaN,NaN,NaN,NaN,NaN,NaN,NaN,,,NaN,NaN,NaN,NaN,994.433942300268,994.433942300268,994.433942300268,994.433942300268,994.433942300268,1.13734567901235,1.54895729990676,ScrollDown,정답,995.972894100007,995.972894100007,996.472853200044,996.983287000097,NaN,,,,NaN,NaN,NaN,,NaN,NaN,NaN,NaN,NaN,NaN,NaN,NaN+0i,NaN+0i,NaN,NaN,NaN,NaN,11,64,남자,yes,yes,yes,yes,no,2023-08-01_10h31.47.839,Main,2022.2.4,60.1405002002043
20,넌 편안해,1,Orange,A,5.91666666666667,5.86666666666667,ScrollDown,ScrollUp,Orange.png,1,Positive,Congruent,,,NaN,,,NaN,NaN,NaN,NaN,NaN,NaN,NaN,NaN,NaN,NaN,NaN,NaN,0,0,0,0,NaN,NaN,NaN,NaN,NaN,NaN,NaN,NaN,0,0,0,0,NaN,NaN,NaN,NaN,0,0,0,0,0,19,19,19,NaN,NaN,NaN,NaN,NaN,NaN,NaN,NaN,NaN,NaN,NaN,NaN,NaN,NaN,NaN,NaN,NaN,NaN,NaN,NaN,NaN,"",NaN,NaN,NaN,NaN,NaN,NaN,NaN,NaN,NaN,NaN,NaN,,,NaN,NaN,NaN,NaN,996.983287000097,996.983287000097,996.983287000097,996.983287000097,996.983287000097,1.19598765432099,1.71578479977325,ScrollDown,정답,998.706185000017,998.706185000017,999.206119799986,999.723310700152,NaN,,,,NaN,NaN,NaN,,NaN,NaN,NaN,NaN,NaN,NaN,NaN,NaN+0i,NaN+0i,NaN,NaN,NaN,NaN,11,64,남자,yes,yes,yes,yes,no,2023-08-01_10h31.47.839,Main,2022.2.4,60.1405002002043
21,넌 품위있어,2,Green,B,5.29166666666667,4.46666666666667,ScrollUp,ScrollDown,Green.png,1,Positive,Incongruent,,,NaN,,,NaN,NaN,NaN,NaN,NaN,NaN,NaN,NaN,NaN,NaN,NaN,NaN,0,0,0,0,NaN,NaN,NaN,NaN,NaN,NaN,NaN,NaN,0,0,0,0,NaN,NaN,NaN,NaN,0,0,0,0,0,20,20,20,NaN,NaN,NaN,NaN,NaN,NaN,NaN,NaN,NaN,NaN,NaN,NaN,NaN,NaN,NaN,NaN,NaN,NaN,NaN,NaN,NaN,"",NaN,NaN,NaN,NaN,NaN,NaN,NaN,NaN,NaN,NaN,NaN,,,NaN,NaN,NaN,NaN,999.723310700152,999.723310700152,999.723310700152,999.723310700152,999.723310700152,1.65432098765432,1.31663199979812,ScrollUp,정답,1001.03972950019,1001.03972950019,1001.53946939996,1002.05223050015,NaN,,,,NaN,NaN,NaN,,NaN,NaN,NaN,NaN,NaN,NaN,NaN,NaN+0i,NaN+0i,NaN,NaN,NaN,NaN,11,64,남자,yes,yes,yes,yes,no,2023-08-01_10h31.47.839,Main,2022.2.4,60.1405002002043
22,넌 빈틈없어,3,Orange,A,4.83333333333333,3.96666666666667,ScrollDown,ScrollUp,Orange.png,1,Neutral,Neutral,,,NaN,,,NaN,NaN,NaN,NaN,NaN,NaN,NaN,NaN,NaN,NaN,NaN,NaN,0,0,0,0,NaN,NaN,NaN,NaN,NaN,NaN,NaN,NaN,0,0,0,0,NaN,NaN,NaN,NaN,0,0,0,0,0,21,21,21,NaN,NaN,NaN,NaN,NaN,NaN,NaN,NaN,NaN,NaN,NaN,NaN,NaN,NaN,NaN,NaN,NaN,NaN,NaN,NaN,NaN,"",NaN,NaN,NaN,NaN,NaN,NaN,NaN,NaN,NaN,NaN,NaN,,,NaN,NaN,NaN,NaN,1002.05223050015,1002.05223050015,1002.05223050015,1002.05223050015,1002.05223050015,1.2391975308642,1.24944850010797,ScrollDown,정답,1003.30572160007,1003.30572160007,1003.80585000012,1004.3178449003,NaN,,,,NaN,NaN,NaN,,NaN,NaN,NaN,NaN,NaN,NaN,NaN,NaN+0i,NaN+0i,NaN,NaN,NaN,NaN,11,64,남자,yes,yes,yes,yes,no,2023-08-01_10h31.47.839,Main,2022.2.4,60.1405002002043
23,넌 상상력없어,4,Green,B,2.83333333333333,3.13333333333333,ScrollUp,ScrollDown,Green.png,1,Negative,Congruent,,,NaN,,,NaN,NaN,NaN,NaN,NaN,NaN,NaN,NaN,NaN,NaN,NaN,NaN,0,0,0,0,NaN,NaN,NaN,NaN,NaN,NaN,NaN,NaN,0,0,0,0,NaN,NaN,NaN,NaN,0,0,0,0,0,22,22,22,NaN,NaN,NaN,NaN,NaN,NaN,NaN,NaN,NaN,NaN,NaN,NaN,NaN,NaN,NaN,NaN,NaN,NaN,NaN,NaN,NaN,"",NaN,NaN,NaN,NaN,NaN,NaN,NaN,NaN,NaN,NaN,NaN,,,NaN,NaN,NaN,NaN,1004.3178449003,1004.3178449003,1004.3178449003,1004.3178449003,1004.3178449003,1.78395061728395,1.39885409967974,ScrollUp,정답,1005.72267740034,1005.72267740034,1006.22278820025,1006.74302620022,NaN,,,,NaN,NaN,NaN,,NaN,NaN,NaN,NaN,NaN,NaN,NaN,NaN+0i,NaN+0i,NaN,NaN,NaN,NaN,11,64,남자,yes,yes,yes,yes,no,2023-08-01_10h31.47.839,Main,2022.2.4,60.1405002002043
24,넌 지혜로워,2,Green,B,6.33333333333333,4.63333333333333,ScrollUp,ScrollDown,Green.png,1,Positive,Incongruent,,,NaN,,,NaN,NaN,NaN,NaN,NaN,NaN,NaN,NaN,NaN,NaN,NaN,NaN,0,0,0,0,NaN,NaN,NaN,NaN,NaN,NaN,NaN,NaN,0,0,0,0,NaN,NaN,NaN,NaN,0,0,0,0,0,23,23,23,NaN,NaN,NaN,NaN,NaN,NaN,NaN,NaN,NaN,NaN,NaN,NaN,NaN,NaN,NaN,NaN,NaN,NaN,NaN,NaN,NaN,"",NaN,NaN,NaN,NaN,NaN,NaN,NaN,NaN,NaN,NaN,NaN,,,NaN,NaN,NaN,NaN,1006.74302620022,1006.74302620022,1006.74302620022,1006.74302620022,1006.74302620022,1.86574074074074,1.69888600008562,ScrollUp,정답,1008.43907310022,1008.43907310022,1008.93912740005,1009.46259230003,NaN,,,,NaN,NaN,NaN,,NaN,NaN,NaN,NaN,NaN,NaN,NaN,NaN+0i,NaN+0i,NaN,NaN,NaN,NaN,11,64,남자,yes,yes,yes,yes,no,2023-08-01_10h31.47.839,Main,2022.2.4,60.1405002002043
25,넌 시끄러워,4,Orange,A,2.83333333333333,3.03333333333333,ScrollDown,ScrollUp,Orange.png,1,Negative,Incongruent,,,NaN,,,NaN,NaN,NaN,NaN,NaN,NaN,NaN,NaN,NaN,NaN,NaN,NaN,0,0,0,0,NaN,NaN,NaN,NaN,NaN,NaN,NaN,NaN,0,0,0,0,NaN,NaN,NaN,NaN,0,0,0,0,0,24,24,24,NaN,NaN,NaN,NaN,NaN,NaN,NaN,NaN,NaN,NaN,NaN,NaN,NaN,NaN,NaN,NaN,NaN,NaN,NaN,NaN,NaN,"",NaN,NaN,NaN,NaN,NaN,NaN,NaN,NaN,NaN,NaN,NaN,,,NaN,NaN,NaN,NaN,1009.46259230003,1009.46259230003,1009.46259230003,1009.46259230003,1009.46259230003,1.32098765432099,0.939512500073761,ScrollDown,정답,1010.38939699996,1010.38939699996,1010.8892012001,1011.40074039996,NaN,,,,NaN,NaN,NaN,,NaN,NaN,NaN,NaN,NaN,NaN,NaN,NaN+0i,NaN+0i,NaN,NaN,NaN,NaN,11,64,남자,yes,yes,yes,yes,no,2023-08-01_10h31.47.839,Main,2022.2.4,60.1405002002043
26,넌 만사태평이야,3,Green,B,4,4.33333333333333,ScrollUp,ScrollDown,Green.png,1,Neutral,Neutral,,,NaN,,,NaN,NaN,NaN,NaN,NaN,NaN,NaN,NaN,NaN,NaN,NaN,NaN,0,0,0,0,NaN,NaN,NaN,NaN,NaN,NaN,NaN,NaN,0,0,0,0,NaN,NaN,NaN,NaN,0,0,0,0,0,25,25,25,NaN,NaN,NaN,NaN,NaN,NaN,NaN,NaN,NaN,NaN,NaN,NaN,NaN,NaN,NaN,NaN,NaN,NaN,NaN,NaN,NaN,"",NaN,NaN,NaN,NaN,NaN,NaN,NaN,NaN,NaN,NaN,NaN,,,NaN,NaN,NaN,NaN,1011.40074039996,1011.40074039996,1011.40074039996,1011.40074039996,1011.40074039996,1.83179012345679,1.34869940020144,ScrollUp,정답,1012.7558058002,1012.7558058002,1013.25616970006,1013.7791790003,NaN,,,,NaN,NaN,NaN,,NaN,NaN,NaN,NaN,NaN,NaN,NaN,NaN+0i,NaN+0i,NaN,NaN,NaN,NaN,11,64,남자,yes,yes,yes,yes,no,2023-08-01_10h31.47.839,Main,2022.2.4,60.1405002002043
27,넌 붙임성있어,1,Orange,A,5.70833333333333,5.63333333333333,ScrollDown,ScrollUp,Orange.png,1,Positive,Congruent,,,NaN,,,NaN,NaN,NaN,NaN,NaN,NaN,NaN,NaN,NaN,NaN,NaN,NaN,0,0,0,0,NaN,NaN,NaN,NaN,NaN,NaN,NaN,NaN,0,0,0,0,NaN,NaN,NaN,NaN,0,0,0,0,0,26,26,26,NaN,NaN,NaN,NaN,NaN,NaN,NaN,NaN,NaN,NaN,NaN,NaN,NaN,NaN,NaN,NaN,NaN,NaN,NaN,NaN,NaN,"",NaN,NaN,NaN,NaN,NaN,NaN,NaN,NaN,NaN,NaN,NaN,,,NaN,NaN,NaN,NaN,1013.7791790003,1013.7791790003,1013.7791790003,1013.7791790003,1013.7791790003,1.19907407407407,1.26521029975265,ScrollDown,정답,1015.0390761001,1015.0390761001,1015.53921560012,1016.05021130014,NaN,,,,NaN,NaN,NaN,,NaN,NaN,NaN,NaN,NaN,NaN,NaN,NaN+0i,NaN+0i,NaN,NaN,NaN,NaN,11,64,남자,yes,yes,yes,yes,no,2023-08-01_10h31.47.839,Main,2022.2.4,60.1405002002043
28,넌 영리해,2,Orange,A,6,4.03333333333333,ScrollDown,ScrollUp,Orange.png,1,Positive,Congruent,,,NaN,,,NaN,NaN,NaN,NaN,NaN,NaN,NaN,NaN,NaN,NaN,NaN,NaN,0,0,0,0,NaN,NaN,NaN,NaN,NaN,NaN,NaN,NaN,0,0,0,0,NaN,NaN,NaN,NaN,0,0,0,0,0,27,27,27,NaN,NaN,NaN,NaN,NaN,NaN,NaN,NaN,NaN,NaN,NaN,NaN,NaN,NaN,NaN,NaN,NaN,NaN,NaN,NaN,NaN,"",NaN,NaN,NaN,NaN,NaN,NaN,NaN,NaN,NaN,NaN,NaN,,,NaN,NaN,NaN,NaN,1016.05021130014,1016.05021130014,1016.05021130014,1016.05021130014,1016.05021130014,1.2716049382716,1.69875529967248,ScrollDown,정답,1017.75577450031,1017.75577450031,1018.25580319995,1018.76458019996,NaN,,,,NaN,NaN,NaN,,NaN,NaN,NaN,NaN,NaN,NaN,NaN,NaN+0i,NaN+0i,NaN,NaN,NaN,NaN,11,64,남자,yes,yes,yes,yes,no,2023-08-01_10h31.47.839,Main,2022.2.4,60.1405002002043
29,넌 열심이야,1,Green,B,6.04166666666667,5.83333333333333,ScrollUp,ScrollDown,Green.png,1,Positive,Incongruent,,,NaN,,,NaN,NaN,NaN,NaN,NaN,NaN,NaN,NaN,NaN,NaN,NaN,NaN,0,0,0,0,NaN,NaN,NaN,NaN,NaN,NaN,NaN,NaN,0,0,0,0,NaN,NaN,NaN,NaN,0,0,0,0,0,28,28,28,NaN,NaN,NaN,NaN,NaN,NaN,NaN,NaN,NaN,NaN,NaN,NaN,NaN,NaN,NaN,NaN,NaN,NaN,NaN,NaN,NaN,"",NaN,NaN,NaN,NaN,NaN,NaN,NaN,NaN,NaN,NaN,NaN,,,NaN,NaN,NaN,NaN,1018.76458019996,1018.76458019996,1018.76458019996,1018.76458019996,1018.76458019996,1.92746913580247,1.9483606996946,ScrollUp,정답,1020.72271060012,1020.72271060012,1021.22280060034,1021.73022809997,NaN,,,,NaN,NaN,NaN,,NaN,NaN,NaN,NaN,NaN,NaN,NaN,NaN+0i,NaN+0i,NaN,NaN,NaN,NaN,11,64,남자,yes,yes,yes,yes,no,2023-08-01_10h31.47.839,Main,2022.2.4,60.1405002002043
30,넌 인기없어,4,Green,B,3,3.3,ScrollUp,ScrollDown,Green.png,1,Negative,Congruent,,,NaN,,,NaN,NaN,NaN,NaN,NaN,NaN,NaN,NaN,NaN,NaN,NaN,NaN,0,0,0,0,NaN,NaN,NaN,NaN,NaN,NaN,NaN,NaN,0,0,0,0,NaN,NaN,NaN,NaN,0,0,0,0,0,29,29,29,NaN,NaN,NaN,NaN,NaN,NaN,NaN,NaN,NaN,NaN,NaN,NaN,NaN,NaN,NaN,NaN,NaN,NaN,NaN,NaN,NaN,"",NaN,NaN,NaN,NaN,NaN,NaN,NaN,NaN,NaN,NaN,NaN,,,NaN,NaN,NaN,NaN,1021.73022809997,1021.73022809997,1021.73022809997,1021.73022809997,1021.73022809997,1.77623456790123,1.13351520011202,ScrollUp,정답,1022.87270550011,1022.87270550011,1023.37253540009,1023.88938970026,NaN,,,,NaN,NaN,NaN,,NaN,NaN,NaN,NaN,NaN,NaN,NaN,NaN+0i,NaN+0i,NaN,NaN,NaN,NaN,11,64,남자,yes,yes,yes,yes,no,2023-08-01_10h31.47.839,Main,2022.2.4,60.1405002002043
31,넌 익살스러워,3,Orange,A,4.70833333333333,4.83333333333333,ScrollDown,ScrollUp,Orange.png,1,Neutral,Neutral,,,NaN,,,NaN,NaN,NaN,NaN,NaN,NaN,NaN,NaN,NaN,NaN,NaN,NaN,0,0,0,0,NaN,NaN,NaN,NaN,NaN,NaN,NaN,NaN,0,0,0,0,NaN,NaN,NaN,NaN,0,0,0,0,0,30,30,30,NaN,NaN,NaN,NaN,NaN,NaN,NaN,NaN,NaN,NaN,NaN,NaN,NaN,NaN,NaN,NaN,NaN,NaN,NaN,NaN,NaN,"",NaN,NaN,NaN,NaN,NaN,NaN,NaN,NaN,NaN,NaN,NaN,,,NaN,NaN,NaN,NaN,1023.88938970026,1023.88938970026,1023.88938970026,1023.88938970026,1023.88938970026,1.33024691358025,0.981746399775147,ScrollDown,정답,1024.87284310022,1024.87284310022,1025.3729774002,1025.87870440027,NaN,,,,NaN,NaN,NaN,,NaN,NaN,NaN,NaN,NaN,NaN,NaN,NaN+0i,NaN+0i,NaN,NaN,NaN,NaN,11,64,남자,yes,yes,yes,yes,no,2023-08-01_10h31.47.839,Main,2022.2.4,60.1405002002043
32,넌 이기적이야,5,Green,B,2.29166666666667,2.33333333333333,ScrollUp,ScrollDown,Green.png,1,Negative,Congruent,,,NaN,,,NaN,NaN,NaN,NaN,NaN,NaN,NaN,NaN,NaN,NaN,NaN,NaN,0,0,0,0,NaN,NaN,NaN,NaN,NaN,NaN,NaN,NaN,0,0,0,0,NaN,NaN,NaN,NaN,0,0,0,0,0,31,31,31,NaN,NaN,NaN,NaN,NaN,NaN,NaN,NaN,NaN,NaN,NaN,NaN,NaN,NaN,NaN,NaN,NaN,NaN,NaN,NaN,NaN,"",NaN,NaN,NaN,NaN,NaN,NaN,NaN,NaN,NaN,NaN,NaN,,,NaN,NaN,NaN,NaN,1025.87870440027,1025.87870440027,1025.87870440027,1025.87870440027,1025.87870440027,1.99228395061728,1.29972149990499,ScrollUp,정답,1027.18961120024,1027.18961120024,1027.68916910002,1028.1947118002,NaN,,,,NaN,NaN,NaN,,NaN,NaN,NaN,NaN,NaN,NaN,NaN,NaN+0i,NaN+0i,NaN,NaN,NaN,NaN,11,64,남자,yes,yes,yes,yes,no,2023-08-01_10h31.47.839,Main,2022.2.4,60.1405002002043
33,나를 데려가줘,6,Green,B,0,0,ScrollDown,ScrollUp,Green.png,1,NonTarget,NonTarget,,,NaN,,,NaN,NaN,NaN,NaN,NaN,NaN,NaN,NaN,NaN,NaN,NaN,NaN,0,0,0,0,NaN,NaN,NaN,NaN,NaN,NaN,NaN,NaN,0,0,0,0,NaN,NaN,NaN,NaN,0,0,0,0,0,32,32,32,NaN,NaN,NaN,NaN,NaN,NaN,NaN,NaN,NaN,NaN,NaN,NaN,NaN,NaN,NaN,NaN,NaN,NaN,NaN,NaN,NaN,"",NaN,NaN,NaN,NaN,NaN,NaN,NaN,NaN,NaN,NaN,NaN,,,NaN,NaN,NaN,NaN,1028.1947118002,1028.1947118002,1028.1947118002,1028.1947118002,1028.1947118002,1.36728395061728,3.99846810009331,ScrollDown,정답,1032.20621580025,1032.20621580025,1032.70614310028,1033.22853570012,NaN,,,,NaN,NaN,NaN,,NaN,NaN,NaN,NaN,NaN,NaN,NaN,NaN+0i,NaN+0i,NaN,NaN,NaN,NaN,11,64,남자,yes,yes,yes,yes,no,2023-08-01_10h31.47.839,Main,2022.2.4,60.1405002002043
34,넌 기회주의자야,5,Orange,A,2.875,2.13333333333333,ScrollDown,ScrollUp,Orange.png,1,Negative,Incongruent,,,NaN,,,NaN,NaN,NaN,NaN,NaN,NaN,NaN,NaN,NaN,NaN,NaN,NaN,0,0,0,0,NaN,NaN,NaN,NaN,NaN,NaN,NaN,NaN,0,0,0,0,NaN,NaN,NaN,NaN,0,0,0,0,0,33,33,33,NaN,NaN,NaN,NaN,NaN,NaN,NaN,NaN,NaN,NaN,NaN,NaN,NaN,NaN,NaN,NaN,NaN,NaN,NaN,NaN,NaN,"",NaN,NaN,NaN,NaN,NaN,NaN,NaN,NaN,NaN,NaN,NaN,,,NaN,NaN,NaN,NaN,1033.22853570012,1033.22853570012,1033.22853570012,1033.22853570012,1033.22853570012,1.21604938271605,1.44939520023763,ScrollDown,정답,1034.67252020026,1034.67252020026,1035.17308350001,1035.67349990038,NaN,,,,NaN,NaN,NaN,,NaN,NaN,NaN,NaN,NaN,NaN,NaN,NaN+0i,NaN+0i,NaN,NaN,NaN,NaN,11,64,남자,yes,yes,yes,yes,no,2023-08-01_10h31.47.839,Main,2022.2.4,60.1405002002043
NaN,,NaN,,,NaN,NaN,,,,NaN,,,,,NaN,,,NaN,NaN,NaN,NaN,NaN,NaN,NaN,NaN,NaN,NaN,NaN,NaN,0,0,0,0,NaN,NaN,NaN,NaN,NaN,NaN,NaN,NaN,0,0,0,0,NaN,NaN,NaN,NaN,0,0,0,0,NaN,NaN,NaN,NaN,0,0,0,0,NaN,NaN,NaN,NaN,NaN,NaN,NaN,NaN,NaN,NaN,NaN,NaN,NaN,NaN,NaN,NaN,NaN,"",NaN,NaN,NaN,NaN,NaN,NaN,NaN,NaN,NaN,NaN,NaN,,,NaN,NaN,NaN,NaN,NaN,NaN,NaN,NaN,NaN,NaN,NaN,,,NaN,NaN,NaN,NaN,2,,,,NaN,NaN,NaN,,NaN,NaN,NaN,NaN,NaN,NaN,NaN,NaN+0i,NaN+0i,NaN,NaN,NaN,NaN,11,64,남자,yes,yes,yes,yes,no,2023-08-01_10h31.47.839,Main,2022.2.4,60.1405002002043
NaN,,NaN,,,NaN,NaN,,,,NaN,,,,,NaN,,,NaN,NaN,NaN,NaN,NaN,NaN,NaN,NaN,NaN,NaN,NaN,NaN,0,0,0,0,NaN,NaN,NaN,NaN,NaN,NaN,NaN,NaN,0,0,0,0,NaN,NaN,NaN,NaN,0,0,0,0,NaN,NaN,NaN,NaN,NaN,NaN,NaN,NaN,NaN,NaN,NaN,NaN,NaN,NaN,NaN,NaN,NaN,NaN,NaN,NaN,NaN,NaN,NaN,NaN,NaN,"",NaN,NaN,NaN,NaN,NaN,NaN,NaN,NaN,NaN,NaN,NaN,,,NaN,NaN,NaN,NaN,NaN,NaN,NaN,NaN,NaN,NaN,NaN,,,NaN,NaN,NaN,NaN,NaN,,,,NaN,NaN,NaN,,NaN,NaN,NaN,NaN,NaN,NaN,NaN,NaN+0i,NaN+0i,NaN,NaN,NaN,NaN,11,64,남자,yes,yes,yes,yes,no,2023-08-01_10h31.47.839,Main,2022.2.4,60.1405002002043
1,넌 미성숙해,4,Orange,A,3,3.2,ScrollDown,ScrollUp,Orange.png,2,Negative,Incongruent,,,NaN,,,NaN,NaN,NaN,NaN,NaN,NaN,NaN,NaN,NaN,NaN,NaN,NaN,0,0,0,0,NaN,NaN,NaN,NaN,NaN,NaN,NaN,NaN,0,0,0,0,NaN,NaN,NaN,NaN,1,0,1,0,0,0,0,0,NaN,NaN,NaN,NaN,NaN,NaN,NaN,NaN,NaN,NaN,NaN,NaN,NaN,NaN,NaN,NaN,NaN,NaN,NaN,NaN,NaN,"",NaN,NaN,NaN,NaN,NaN,NaN,NaN,NaN,NaN,NaN,NaN,,,NaN,NaN,NaN,NaN,1075.29945140006,1075.29945140006,1075.29945140006,1075.29945140006,1075.29945140006,1.14814814814815,1.19883049977943,ScrollDown,정답,1076.5062984,1076.5062984,1077.00587400002,1077.5145982001,NaN,,,,NaN,NaN,NaN,,NaN,NaN,NaN,NaN,NaN,NaN,NaN,NaN+0i,NaN+0i,NaN,NaN,NaN,NaN,11,64,남자,yes,yes,yes,yes,no,2023-08-01_10h31.47.839,Main,2022.2.4,60.1405002002043
2,넌 반사회적이야,5,Green,B,2.41666666666667,2.03333333333333,ScrollUp,ScrollDown,Green.png,2,Negative,Congruent,,,NaN,,,NaN,NaN,NaN,NaN,NaN,NaN,NaN,NaN,NaN,NaN,NaN,NaN,0,0,0,0,NaN,NaN,NaN,NaN,NaN,NaN,NaN,NaN,0,0,0,0,NaN,NaN,NaN,NaN,1,0,1,0,0,1,1,1,NaN,NaN,NaN,NaN,NaN,NaN,NaN,NaN,NaN,NaN,NaN,NaN,NaN,NaN,NaN,NaN,NaN,NaN,NaN,NaN,NaN,"",NaN,NaN,NaN,NaN,NaN,NaN,NaN,NaN,NaN,NaN,NaN,,,NaN,NaN,NaN,NaN,1077.5145982001,1077.5145982001,1077.5145982001,1077.5145982001,1077.5145982001,2,1.38367090001702,ScrollUp,정답,1078.90590380039,1078.90590380039,1079.40588870039,1079.91691080015,NaN,,,,NaN,NaN,NaN,,NaN,NaN,NaN,NaN,NaN,NaN,NaN,NaN+0i,NaN+0i,NaN,NaN,NaN,NaN,11,64,남자,yes,yes,yes,yes,no,2023-08-01_10h31.47.839,Main,2022.2.4,60.1405002002043
3,넌 유능해,2,Orange,A,6.20833333333333,4.43333333333333,ScrollDown,ScrollUp,Orange.png,2,Positive,Congruent,,,NaN,,,NaN,NaN,NaN,NaN,NaN,NaN,NaN,NaN,NaN,NaN,NaN,NaN,0,0,0,0,NaN,NaN,NaN,NaN,NaN,NaN,NaN,NaN,0,0,0,0,NaN,NaN,NaN,NaN,1,0,1,0,0,2,2,2,NaN,NaN,NaN,NaN,NaN,NaN,NaN,NaN,NaN,NaN,NaN,NaN,NaN,NaN,NaN,NaN,NaN,NaN,NaN,NaN,NaN,"",NaN,NaN,NaN,NaN,NaN,NaN,NaN,NaN,NaN,NaN,NaN,,,NaN,NaN,NaN,NaN,1079.91691080015,1079.91691080015,1079.91691080015,1079.91691080015,1079.91691080015,1.1033950617284,1.13430560007691,ScrollDown,정답,1081.05571949994,1081.05571949994,1081.55587990023,1082.06275480008,NaN,,,,NaN,NaN,NaN,,NaN,NaN,NaN,NaN,NaN,NaN,NaN,NaN+0i,NaN+0i,NaN,NaN,NaN,NaN,11,64,남자,yes,yes,yes,yes,no,2023-08-01_10h31.47.839,Main,2022.2.4,60.1405002002043
4,넌 능숙해,2,Green,B,5.66666666666667,4.73333333333333,ScrollUp,ScrollDown,Green.png,2,Positive,Incongruent,,,NaN,,,NaN,NaN,NaN,NaN,NaN,NaN,NaN,NaN,NaN,NaN,NaN,NaN,0,0,0,0,NaN,NaN,NaN,NaN,NaN,NaN,NaN,NaN,0,0,0,0,NaN,NaN,NaN,NaN,1,0,1,0,0,3,3,3,NaN,NaN,NaN,NaN,NaN,NaN,NaN,NaN,NaN,NaN,NaN,NaN,NaN,NaN,NaN,NaN,NaN,NaN,NaN,NaN,NaN,"",NaN,NaN,NaN,NaN,NaN,NaN,NaN,NaN,NaN,NaN,NaN,,,NaN,NaN,NaN,NaN,1082.06275480008,1082.06275480008,1082.06275480008,1082.06275480008,1082.06275480008,2,1.28169970028102,ScrollUp,정답,1083.35577170039,1083.35577170039,1083.85579319997,1084.3656432,NaN,,,,NaN,NaN,NaN,,NaN,NaN,NaN,NaN,NaN,NaN,NaN,NaN+0i,NaN+0i,NaN,NaN,NaN,NaN,11,64,남자,yes,yes,yes,yes,no,2023-08-01_10h31.47.839,Main,2022.2.4,60.1405002002043
5,넌 진부해,4,Green,B,2.45833333333333,3.16666666666667,ScrollUp,ScrollDown,Green.png,2,Negative,Congruent,,,NaN,,,NaN,NaN,NaN,NaN,NaN,NaN,NaN,NaN,NaN,NaN,NaN,NaN,0,0,0,0,NaN,NaN,NaN,NaN,NaN,NaN,NaN,NaN,0,0,0,0,NaN,NaN,NaN,NaN,1,0,1,0,0,4,4,4,NaN,NaN,NaN,NaN,NaN,NaN,NaN,NaN,NaN,NaN,NaN,NaN,NaN,NaN,NaN,NaN,NaN,NaN,NaN,NaN,NaN,"",NaN,NaN,NaN,NaN,NaN,NaN,NaN,NaN,NaN,NaN,NaN,,,NaN,NaN,NaN,NaN,1084.3656432,1084.3656432,1084.3656432,1084.3656432,1084.3656432,1.95833333333333,1.24809140013531,ScrollUp,정답,1085.62276990013,1085.62276990013,1086.12280240003,1086.63296149997,NaN,,,,NaN,NaN,NaN,,NaN,NaN,NaN,NaN,NaN,NaN,NaN,NaN+0i,NaN+0i,NaN,NaN,NaN,NaN,11,64,남자,yes,yes,yes,yes,no,2023-08-01_10h31.47.839,Main,2022.2.4,60.1405002002043
6,나를 보내줘,6,Orange,A,0,0,ScrollUp,ScrollDown,Orange.png,2,NonTarget,NonTarget,,,NaN,,,NaN,NaN,NaN,NaN,NaN,NaN,NaN,NaN,NaN,NaN,NaN,NaN,0,0,0,0,NaN,NaN,NaN,NaN,NaN,NaN,NaN,NaN,0,0,0,0,NaN,NaN,NaN,NaN,1,0,1,0,0,5,5,5,NaN,NaN,NaN,NaN,NaN,NaN,NaN,NaN,NaN,NaN,NaN,NaN,NaN,NaN,NaN,NaN,NaN,NaN,NaN,NaN,NaN,"",NaN,NaN,NaN,NaN,NaN,NaN,NaN,NaN,NaN,NaN,NaN,,,NaN,NaN,NaN,NaN,1086.63296149997,1086.63296149997,1086.63296149997,1086.63296149997,1086.63296149997,1.9891975308642,2.5491154002957,ScrollUp,정답,1089.1894987002,1089.1894987002,1089.68943020003,1090.19927000022,NaN,,,,NaN,NaN,NaN,,NaN,NaN,NaN,NaN,NaN,NaN,NaN,NaN+0i,NaN+0i,NaN,NaN,NaN,NaN,11,64,남자,yes,yes,yes,yes,no,2023-08-01_10h31.47.839,Main,2022.2.4,60.1405002002043
7,넌 엄격해,3,Orange,A,4.16666666666667,4.1,ScrollDown,ScrollUp,Orange.png,2,Neutral,Neutral,,,NaN,,,NaN,NaN,NaN,NaN,NaN,NaN,NaN,NaN,NaN,NaN,NaN,NaN,0,0,0,0,NaN,NaN,NaN,NaN,NaN,NaN,NaN,NaN,0,0,0,0,NaN,NaN,NaN,NaN,1,0,1,0,0,6,6,6,NaN,NaN,NaN,NaN,NaN,NaN,NaN,NaN,NaN,NaN,NaN,NaN,NaN,NaN,NaN,NaN,NaN,NaN,NaN,NaN,NaN,"",NaN,NaN,NaN,NaN,NaN,NaN,NaN,NaN,NaN,NaN,NaN,,,NaN,NaN,NaN,NaN,1090.19927000022,1090.19927000022,1090.19927000022,1090.19927000022,1090.19927000022,1.11111111111111,1.16693759988993,ScrollDown,정답,1091.37285820022,1091.37285820022,1091.87355640018,1092.3770274003,NaN,,,,NaN,NaN,NaN,,NaN,NaN,NaN,NaN,NaN,NaN,NaN,NaN+0i,NaN+0i,NaN,NaN,NaN,NaN,11,64,남자,yes,yes,yes,yes,no,2023-08-01_10h31.47.839,Main,2022.2.4,60.1405002002043
8,나를 보내줘,6,Orange,A,0,0,ScrollUp,ScrollDown,Orange.png,2,NonTarget,NonTarget,,,NaN,,,NaN,NaN,NaN,NaN,NaN,NaN,NaN,NaN,NaN,NaN,NaN,NaN,0,0,0,0,NaN,NaN,NaN,NaN,NaN,NaN,NaN,NaN,0,0,0,0,NaN,NaN,NaN,NaN,1,0,1,0,0,7,7,7,NaN,NaN,NaN,NaN,NaN,NaN,NaN,NaN,NaN,NaN,NaN,NaN,NaN,NaN,NaN,NaN,NaN,NaN,NaN,NaN,NaN,"",NaN,NaN,NaN,NaN,NaN,NaN,NaN,NaN,NaN,NaN,NaN,,,NaN,NaN,NaN,NaN,1092.3770274003,1092.3770274003,1092.3770274003,1092.3770274003,1092.3770274003,1.97376543209877,1.59944179980084,ScrollUp,정답,1093.98912669998,1093.98912669998,1094.48909440031,1095.0075740004,NaN,,,,NaN,NaN,NaN,,NaN,NaN,NaN,NaN,NaN,NaN,NaN,NaN+0i,NaN+0i,NaN,NaN,NaN,NaN,11,64,남자,yes,yes,yes,yes,no,2023-08-01_10h31.47.839,Main,2022.2.4,60.1405002002043
9,넌 대담해,3,Green,B,4.875,4.86666666666667,ScrollUp,ScrollDown,Green.png,2,Neutral,Neutral,,,NaN,,,NaN,NaN,NaN,NaN,NaN,NaN,NaN,NaN,NaN,NaN,NaN,NaN,0,0,0,0,NaN,NaN,NaN,NaN,NaN,NaN,NaN,NaN,0,0,0,0,NaN,NaN,NaN,NaN,1,0,1,0,0,8,8,8,NaN,NaN,NaN,NaN,NaN,NaN,NaN,NaN,NaN,NaN,NaN,NaN,NaN,NaN,NaN,NaN,NaN,NaN,NaN,NaN,NaN,"",NaN,NaN,NaN,NaN,NaN,NaN,NaN,NaN,NaN,NaN,NaN,,,NaN,NaN,NaN,NaN,1095.0075740004,1095.0075740004,1095.0075740004,1095.0075740004,1095.0075740004,2,1.44936950039119,ScrollUp,정답,1096.45568779996,1096.45568779996,1096.95586250024,1097.48005930008,NaN,,,,NaN,NaN,NaN,,NaN,NaN,NaN,NaN,NaN,NaN,NaN,NaN+0i,NaN+0i,NaN,NaN,NaN,NaN,11,64,남자,yes,yes,yes,yes,no,2023-08-01_10h31.47.839,Main,2022.2.4,60.1405002002043
10,넌 꾸준해,1,Orange,A,5.91666666666667,5.8,ScrollDown,ScrollUp,Orange.png,2,Positive,Congruent,,,NaN,,,NaN,NaN,NaN,NaN,NaN,NaN,NaN,NaN,NaN,NaN,NaN,NaN,0,0,0,0,NaN,NaN,NaN,NaN,NaN,NaN,NaN,NaN,0,0,0,0,NaN,NaN,NaN,NaN,1,0,1,0,0,9,9,9,NaN,NaN,NaN,NaN,NaN,NaN,NaN,NaN,NaN,NaN,NaN,NaN,NaN,NaN,NaN,NaN,NaN,NaN,NaN,NaN,NaN,"",NaN,NaN,NaN,NaN,NaN,NaN,NaN,NaN,NaN,NaN,NaN,,,NaN,NaN,NaN,NaN,1097.48005930008,1097.48005930008,1097.48005930008,1097.48005930008,1097.48005930008,1.11111111111111,1.26539009995759,ScrollDown,정답,1098.73910360038,1098.73910360038,1099.23922919994,1099.74405610003,NaN,,,,NaN,NaN,NaN,,NaN,NaN,NaN,NaN,NaN,NaN,NaN,NaN+0i,NaN+0i,NaN,NaN,NaN,NaN,11,64,남자,yes,yes,yes,yes,no,2023-08-01_10h31.47.839,Main,2022.2.4,60.1405002002043
11,나를 데려가줘,6,Green,B,0,0,ScrollDown,ScrollUp,Green.png,2,NonTarget,NonTarget,,,NaN,,,NaN,NaN,NaN,NaN,NaN,NaN,NaN,NaN,NaN,NaN,NaN,NaN,0,0,0,0,NaN,NaN,NaN,NaN,NaN,NaN,NaN,NaN,0,0,0,0,NaN,NaN,NaN,NaN,1,0,1,0,0,10,10,10,NaN,NaN,NaN,NaN,NaN,NaN,NaN,NaN,NaN,NaN,NaN,NaN,NaN,NaN,NaN,NaN,NaN,NaN,NaN,NaN,NaN,"",NaN,NaN,NaN,NaN,NaN,NaN,NaN,NaN,NaN,NaN,NaN,,,NaN,NaN,NaN,NaN,1099.74405610003,1099.74405610003,1099.74405610003,1099.74405610003,1099.74405610003,1.31172839506173,1.84852850018069,ScrollDown,정답,1101.60569310002,1101.60569310002,1102.10578760039,1102.61970310006,NaN,,,,NaN,NaN,NaN,,NaN,NaN,NaN,NaN,NaN,NaN,NaN,NaN+0i,NaN+0i,NaN,NaN,NaN,NaN,11,64,남자,yes,yes,yes,yes,no,2023-08-01_10h31.47.839,Main,2022.2.4,60.1405002002043
12,넌 독선적이야,5,Orange,A,2.45833333333333,1.93333333333333,ScrollDown,ScrollUp,Orange.png,2,Negative,Incongruent,,,NaN,,,NaN,NaN,NaN,NaN,NaN,NaN,NaN,NaN,NaN,NaN,NaN,NaN,0,0,0,0,NaN,NaN,NaN,NaN,NaN,NaN,NaN,NaN,0,0,0,0,NaN,NaN,NaN,NaN,1,0,1,0,0,11,11,11,NaN,NaN,NaN,NaN,NaN,NaN,NaN,NaN,NaN,NaN,NaN,NaN,NaN,NaN,NaN,NaN,NaN,NaN,NaN,NaN,NaN,"",NaN,NaN,NaN,NaN,NaN,NaN,NaN,NaN,NaN,NaN,NaN,,,NaN,NaN,NaN,NaN,1102.61970310006,1102.61970310006,1102.61970310006,1102.61970310006,1102.61970310006,1.18364197530864,1.36693520005792,ScrollDown,정답,1103.98913470004,1103.98913470004,1104.48994849995,1104.99792610016,NaN,,,,NaN,NaN,NaN,,NaN,NaN,NaN,NaN,NaN,NaN,NaN,NaN+0i,NaN+0i,NaN,NaN,NaN,NaN,11,64,남자,yes,yes,yes,yes,no,2023-08-01_10h31.47.839,Main,2022.2.4,60.1405002002043
13,나를 보내줘,6,Orange,A,0,0,ScrollUp,ScrollDown,Orange.png,2,NonTarget,NonTarget,,,NaN,,,NaN,NaN,NaN,NaN,NaN,NaN,NaN,NaN,NaN,NaN,NaN,NaN,0,0,0,0,NaN,NaN,NaN,NaN,NaN,NaN,NaN,NaN,0,0,0,0,NaN,NaN,NaN,NaN,1,0,1,0,0,12,12,12,NaN,NaN,NaN,NaN,NaN,NaN,NaN,NaN,NaN,NaN,NaN,NaN,NaN,NaN,NaN,NaN,NaN,NaN,NaN,NaN,NaN,"",NaN,NaN,NaN,NaN,NaN,NaN,NaN,NaN,NaN,NaN,NaN,,,NaN,NaN,NaN,NaN,1104.99792610016,1104.99792610016,1104.99792610016,1104.99792610016,1104.99792610016,1.93672839506173,2.23233920009807,ScrollUp,정답,1107.23905420024,1107.23905420024,1107.73944419995,1108.25805390021,NaN,,,,NaN,NaN,NaN,,NaN,NaN,NaN,NaN,NaN,NaN,NaN,NaN+0i,NaN+0i,NaN,NaN,NaN,NaN,11,64,남자,yes,yes,yes,yes,no,2023-08-01_10h31.47.839,Main,2022.2.4,60.1405002002043
14,넌 책임감있어,1,Green,B,6.34782608695652,6,ScrollUp,ScrollDown,Green.png,2,Positive,Incongruent,,,NaN,,,NaN,NaN,NaN,NaN,NaN,NaN,NaN,NaN,NaN,NaN,NaN,NaN,0,0,0,0,NaN,NaN,NaN,NaN,NaN,NaN,NaN,NaN,0,0,0,0,NaN,NaN,NaN,NaN,1,0,1,0,0,13,13,13,NaN,NaN,NaN,NaN,NaN,NaN,NaN,NaN,NaN,NaN,NaN,NaN,NaN,NaN,NaN,NaN,NaN,NaN,NaN,NaN,NaN,"",NaN,NaN,NaN,NaN,NaN,NaN,NaN,NaN,NaN,NaN,NaN,,,NaN,NaN,NaN,NaN,1108.25805390021,1108.25805390021,1108.25805390021,1108.25805390021,1108.25805390021,1.9212962962963,1.69879639986902,ScrollUp,정답,1109.95580310002,1109.95580310002,1110.45567170018,1110.96740260022,NaN,,,,NaN,NaN,NaN,,NaN,NaN,NaN,NaN,NaN,NaN,NaN,NaN+0i,NaN+0i,NaN,NaN,NaN,NaN,11,64,남자,yes,yes,yes,yes,no,2023-08-01_10h31.47.839,Main,2022.2.4,60.1405002002043
15,넌 문학적이야,3,Orange,A,4.70833333333333,4.33333333333333,ScrollDown,ScrollUp,Orange.png,2,Neutral,Neutral,,,NaN,,,NaN,NaN,NaN,NaN,NaN,NaN,NaN,NaN,NaN,NaN,NaN,NaN,0,0,0,0,NaN,NaN,NaN,NaN,NaN,NaN,NaN,NaN,0,0,0,0,NaN,NaN,NaN,NaN,1,0,1,0,0,14,14,14,NaN,NaN,NaN,NaN,NaN,NaN,NaN,NaN,NaN,NaN,NaN,NaN,NaN,NaN,NaN,NaN,NaN,NaN,NaN,NaN,NaN,"",NaN,NaN,NaN,NaN,NaN,NaN,NaN,NaN,NaN,NaN,NaN,,,NaN,NaN,NaN,NaN,1110.96740260022,1110.96740260022,1110.96740260022,1110.96740260022,1110.96740260022,1.25154320987654,3.48417369974777,ScrollDown,정답,1114.4560719002,1114.4560719002,1114.95565300016,1115.4627201003,NaN,,,,NaN,NaN,NaN,,NaN,NaN,NaN,NaN,NaN,NaN,NaN,NaN+0i,NaN+0i,NaN,NaN,NaN,NaN,11,64,남자,yes,yes,yes,yes,no,2023-08-01_10h31.47.839,Main,2022.2.4,60.1405002002043
16,넌 재미있어,1,Green,B,5.875,5.7,ScrollUp,ScrollDown,Green.png,2,Positive,Incongruent,,,NaN,,,NaN,NaN,NaN,NaN,NaN,NaN,NaN,NaN,NaN,NaN,NaN,NaN,0,0,0,0,NaN,NaN,NaN,NaN,NaN,NaN,NaN,NaN,0,0,0,0,NaN,NaN,NaN,NaN,1,0,1,0,0,15,15,15,NaN,NaN,NaN,NaN,NaN,NaN,NaN,NaN,NaN,NaN,NaN,NaN,NaN,NaN,NaN,NaN,NaN,NaN,NaN,NaN,NaN,"",NaN,NaN,NaN,NaN,NaN,NaN,NaN,NaN,NaN,NaN,NaN,,,NaN,NaN,NaN,NaN,1115.4627201003,1115.4627201003,1115.4627201003,1115.4627201003,1115.4627201003,1.80555555555556,1.88350690016523,ScrollUp,정답,1117.35597140016,1117.35597140016,1117.85587830003,1118.36444899999,NaN,,,,NaN,NaN,NaN,,NaN,NaN,NaN,NaN,NaN,NaN,NaN,NaN+0i,NaN+0i,NaN,NaN,NaN,NaN,11,64,남자,yes,yes,yes,yes,no,2023-08-01_10h31.47.839,Main,2022.2.4,60.1405002002043
17,나를 데려가줘,6,Green,B,0,0,ScrollDown,ScrollUp,Green.png,2,NonTarget,NonTarget,,,NaN,,,NaN,NaN,NaN,NaN,NaN,NaN,NaN,NaN,NaN,NaN,NaN,NaN,0,0,0,0,NaN,NaN,NaN,NaN,NaN,NaN,NaN,NaN,0,0,0,0,NaN,NaN,NaN,NaN,1,0,1,0,0,16,16,16,NaN,NaN,NaN,NaN,NaN,NaN,NaN,NaN,NaN,NaN,NaN,NaN,NaN,NaN,NaN,NaN,NaN,NaN,NaN,NaN,NaN,"",NaN,NaN,NaN,NaN,NaN,NaN,NaN,NaN,NaN,NaN,NaN,,,NaN,NaN,NaN,NaN,1118.36444899999,1118.36444899999,1118.36444899999,1118.36444899999,1118.36444899999,1.2037037037037,1.63381140027195,ScrollDown,정답,1120.00576550001,1120.00576550001,1120.50655240007,1121.02016720036,NaN,,,,NaN,NaN,NaN,,NaN,NaN,NaN,NaN,NaN,NaN,NaN,NaN+0i,NaN+0i,NaN,NaN,NaN,NaN,11,64,남자,yes,yes,yes,yes,no,2023-08-01_10h31.47.839,Main,2022.2.4,60.1405002002043
18,넌 협력적이야,1,Orange,A,5.625,5.63333333333333,ScrollDown,ScrollUp,Orange.png,2,Positive,Congruent,,,NaN,,,NaN,NaN,NaN,NaN,NaN,NaN,NaN,NaN,NaN,NaN,NaN,NaN,0,0,0,0,NaN,NaN,NaN,NaN,NaN,NaN,NaN,NaN,0,0,0,0,NaN,NaN,NaN,NaN,1,0,1,0,0,17,17,17,NaN,NaN,NaN,NaN,NaN,NaN,NaN,NaN,NaN,NaN,NaN,NaN,NaN,NaN,NaN,NaN,NaN,NaN,NaN,NaN,NaN,"",NaN,NaN,NaN,NaN,NaN,NaN,NaN,NaN,NaN,NaN,NaN,,,NaN,NaN,NaN,NaN,1121.02016720036,1121.02016720036,1121.02016720036,1121.02016720036,1121.02016720036,1.26851851851852,1.29897999996319,ScrollDown,정답,1122.32281040028,1122.32281040028,1122.82274450036,1123.33577290038,NaN,,,,NaN,NaN,NaN,,NaN,NaN,NaN,NaN,NaN,NaN,NaN,NaN+0i,NaN+0i,NaN,NaN,NaN,NaN,11,64,남자,yes,yes,yes,yes,no,2023-08-01_10h31.47.839,Main,2022.2.4,60.1405002002043
19,넌 평범해,3,Green,B,4.33333333333333,4.23333333333333,ScrollUp,ScrollDown,Green.png,2,Neutral,Neutral,,,NaN,,,NaN,NaN,NaN,NaN,NaN,NaN,NaN,NaN,NaN,NaN,NaN,NaN,0,0,0,0,NaN,NaN,NaN,NaN,NaN,NaN,NaN,NaN,0,0,0,0,NaN,NaN,NaN,NaN,1,0,1,0,0,18,18,18,NaN,NaN,NaN,NaN,NaN,NaN,NaN,NaN,NaN,NaN,NaN,NaN,NaN,NaN,NaN,NaN,NaN,NaN,NaN,NaN,NaN,"",NaN,NaN,NaN,NaN,NaN,NaN,NaN,NaN,NaN,NaN,NaN,,,NaN,NaN,NaN,NaN,1123.33577290038,1123.33577290038,1123.33577290038,1123.33577290038,1123.33577290038,2,1.2990665002726,ScrollUp,정답,1124.63966820017,1124.63966820017,1125.13912340021,1125.65750139998,NaN,,,,NaN,NaN,NaN,,NaN,NaN,NaN,NaN,NaN,NaN,NaN,NaN+0i,NaN+0i,NaN,NaN,NaN,NaN,11,64,남자,yes,yes,yes,yes,no,2023-08-01_10h31.47.839,Main,2022.2.4,60.1405002002043
20,넌 오만해,5,Orange,A,2.33333333333333,2,ScrollDown,ScrollUp,Orange.png,2,Negative,Incongruent,,,NaN,,,NaN,NaN,NaN,NaN,NaN,NaN,NaN,NaN,NaN,NaN,NaN,NaN,0,0,0,0,NaN,NaN,NaN,NaN,NaN,NaN,NaN,NaN,0,0,0,0,NaN,NaN,NaN,NaN,1,0,1,0,0,19,19,19,NaN,NaN,NaN,NaN,NaN,NaN,NaN,NaN,NaN,NaN,NaN,NaN,NaN,NaN,NaN,NaN,NaN,NaN,NaN,NaN,NaN,"",NaN,NaN,NaN,NaN,NaN,NaN,NaN,NaN,NaN,NaN,NaN,,,NaN,NaN,NaN,NaN,1125.65750139998,1125.65750139998,1125.65750139998,1125.65750139998,1125.65750139998,1.25617283950617,1.14866760000587,ScrollDown,정답,1126.80570830032,1126.80570830032,1127.30588980019,1127.81719009997,NaN,,,,NaN,NaN,NaN,,NaN,NaN,NaN,NaN,NaN,NaN,NaN,NaN+0i,NaN+0i,NaN,NaN,NaN,NaN,11,64,남자,yes,yes,yes,yes,no,2023-08-01_10h31.47.839,Main,2022.2.4,60.1405002002043
21,넌 운이없어,4,Green,B,3,3.46666666666667,ScrollUp,ScrollDown,Green.png,2,Negative,Congruent,,,NaN,,,NaN,NaN,NaN,NaN,NaN,NaN,NaN,NaN,NaN,NaN,NaN,NaN,0,0,0,0,NaN,NaN,NaN,NaN,NaN,NaN,NaN,NaN,0,0,0,0,NaN,NaN,NaN,NaN,1,0,1,0,0,20,20,20,NaN,NaN,NaN,NaN,NaN,NaN,NaN,NaN,NaN,NaN,NaN,NaN,NaN,NaN,NaN,NaN,NaN,NaN,NaN,NaN,NaN,"",NaN,NaN,NaN,NaN,NaN,NaN,NaN,NaN,NaN,NaN,NaN,,,NaN,NaN,NaN,NaN,1127.81719009997,1127.81719009997,1127.81719009997,1127.81719009997,1127.81719009997,2,1.14906820002943,ScrollUp,정답,1128.97300830018,1128.97300830018,1129.47268490028,1129.99382490013,NaN,,,,NaN,NaN,NaN,,NaN,NaN,NaN,NaN,NaN,NaN,NaN,NaN+0i,NaN+0i,NaN,NaN,NaN,NaN,11,64,남자,yes,yes,yes,yes,no,2023-08-01_10h31.47.839,Main,2022.2.4,60.1405002002043
22,넌 창조적이야,2,Green,B,6.125,4.63333333333333,ScrollUp,ScrollDown,Green.png,2,Positive,Incongruent,,,NaN,,,NaN,NaN,NaN,NaN,NaN,NaN,NaN,NaN,NaN,NaN,NaN,NaN,0,0,0,0,NaN,NaN,NaN,NaN,NaN,NaN,NaN,NaN,0,0,0,0,NaN,NaN,NaN,NaN,1,0,1,0,0,21,21,21,NaN,NaN,NaN,NaN,NaN,NaN,NaN,NaN,NaN,NaN,NaN,NaN,NaN,NaN,NaN,NaN,NaN,NaN,NaN,NaN,NaN,"",NaN,NaN,NaN,NaN,NaN,NaN,NaN,NaN,NaN,NaN,NaN,,,NaN,NaN,NaN,NaN,1129.99382490013,1129.99382490013,1129.99382490013,1129.99382490013,1129.99382490013,2,1.40075849974528,ScrollUp,정답,1131.38930900022,1131.38930900022,1131.88925660029,1132.39420600003,NaN,,,,NaN,NaN,NaN,,NaN,NaN,NaN,NaN,NaN,NaN,NaN,NaN+0i,NaN+0i,NaN,NaN,NaN,NaN,11,64,남자,yes,yes,yes,yes,no,2023-08-01_10h31.47.839,Main,2022.2.4,60.1405002002043
23,나를 보내줘,6,Orange,A,0,0,ScrollUp,ScrollDown,Orange.png,2,NonTarget,NonTarget,,,NaN,,,NaN,NaN,NaN,NaN,NaN,NaN,NaN,NaN,NaN,NaN,NaN,NaN,0,0,0,0,NaN,NaN,NaN,NaN,NaN,NaN,NaN,NaN,0,0,0,0,NaN,NaN,NaN,NaN,1,0,1,0,0,22,22,22,NaN,NaN,NaN,NaN,NaN,NaN,NaN,NaN,NaN,NaN,NaN,NaN,NaN,NaN,NaN,NaN,NaN,NaN,NaN,NaN,NaN,"",NaN,NaN,NaN,NaN,NaN,NaN,NaN,NaN,NaN,NaN,NaN,,,NaN,NaN,NaN,NaN,1132.39420600003,1132.39420600003,1132.39420600003,1132.39420600003,1132.39420600003,1,1.41821350017563,ScrollDown,오답,1133.82270679995,1133.82270679995,1134.32276540017,1134.83517340012,NaN,,,,NaN,NaN,NaN,,NaN,NaN,NaN,NaN,NaN,NaN,NaN,NaN+0i,NaN+0i,NaN,NaN,NaN,NaN,11,64,남자,yes,yes,yes,yes,no,2023-08-01_10h31.47.839,Main,2022.2.4,60.1405002002043
24,넌 통찰력있어,2,Orange,A,6.5,4.8,ScrollDown,ScrollUp,Orange.png,2,Positive,Congruent,,,NaN,,,NaN,NaN,NaN,NaN,NaN,NaN,NaN,NaN,NaN,NaN,NaN,NaN,0,0,0,0,NaN,NaN,NaN,NaN,NaN,NaN,NaN,NaN,0,0,0,0,NaN,NaN,NaN,NaN,1,0,1,0,0,23,23,23,NaN,NaN,NaN,NaN,NaN,NaN,NaN,NaN,NaN,NaN,NaN,NaN,NaN,NaN,NaN,NaN,NaN,NaN,NaN,NaN,NaN,"",NaN,NaN,NaN,NaN,NaN,NaN,NaN,NaN,NaN,NaN,NaN,,,NaN,NaN,NaN,NaN,1134.83517340012,1134.83517340012,1134.83517340012,1134.83517340012,1134.83517340012,1.30246913580247,1.66587819997221,ScrollDown,정답,1136.50576750003,1136.50576750003,1137.0062187002,1137.51119430037,NaN,,,,NaN,NaN,NaN,,NaN,NaN,NaN,NaN,NaN,NaN,NaN,NaN+0i,NaN+0i,NaN,NaN,NaN,NaN,11,64,남자,yes,yes,yes,yes,no,2023-08-01_10h31.47.839,Main,2022.2.4,60.1405002002043
25,넌 경솔해,5,Green,B,2.45833333333333,2.26666666666667,ScrollUp,ScrollDown,Green.png,2,Negative,Congruent,,,NaN,,,NaN,NaN,NaN,NaN,NaN,NaN,NaN,NaN,NaN,NaN,NaN,NaN,0,0,0,0,NaN,NaN,NaN,NaN,NaN,NaN,NaN,NaN,0,0,0,0,NaN,NaN,NaN,NaN,1,0,1,0,0,24,24,24,NaN,NaN,NaN,NaN,NaN,NaN,NaN,NaN,NaN,NaN,NaN,NaN,NaN,NaN,NaN,NaN,NaN,NaN,NaN,NaN,NaN,"",NaN,NaN,NaN,NaN,NaN,NaN,NaN,NaN,NaN,NaN,NaN,,,NaN,NaN,NaN,NaN,1137.51119430037,1137.51119430037,1137.51119430037,1137.51119430037,1137.51119430037,1.96296296296296,1.76643799990416,ScrollUp,정답,1139.28902200004,1139.28902200004,1139.78911040025,1140.29957849998,NaN,,,,NaN,NaN,NaN,,NaN,NaN,NaN,NaN,NaN,NaN,NaN,NaN+0i,NaN+0i,NaN,NaN,NaN,NaN,11,64,남자,yes,yes,yes,yes,no,2023-08-01_10h31.47.839,Main,2022.2.4,60.1405002002043
26,넌 초조해,4,Orange,A,2.91666666666667,3.13333333333333,ScrollDown,ScrollUp,Orange.png,2,Negative,Incongruent,,,NaN,,,NaN,NaN,NaN,NaN,NaN,NaN,NaN,NaN,NaN,NaN,NaN,NaN,0,0,0,0,NaN,NaN,NaN,NaN,NaN,NaN,NaN,NaN,0,0,0,0,NaN,NaN,NaN,NaN,1,0,1,0,0,25,25,25,NaN,NaN,NaN,NaN,NaN,NaN,NaN,NaN,NaN,NaN,NaN,NaN,NaN,NaN,NaN,NaN,NaN,NaN,NaN,NaN,NaN,"",NaN,NaN,NaN,NaN,NaN,NaN,NaN,NaN,NaN,NaN,NaN,,,NaN,NaN,NaN,NaN,1140.29957849998,1140.29957849998,1140.29957849998,1140.29957849998,1140.29957849998,1.39043209876543,3.76704140007496,ScrollDown,정답,1144.07269070018,1144.07269070018,1144.57280890038,1145.09159480035,NaN,,,,NaN,NaN,NaN,,NaN,NaN,NaN,NaN,NaN,NaN,NaN,NaN+0i,NaN+0i,NaN,NaN,NaN,NaN,11,64,남자,yes,yes,yes,yes,no,2023-08-01_10h31.47.839,Main,2022.2.4,60.1405002002043
27,넌 무관심해,4,Green,B,2.83333333333333,2.9,ScrollUp,ScrollDown,Green.png,2,Negative,Congruent,,,NaN,,,NaN,NaN,NaN,NaN,NaN,NaN,NaN,NaN,NaN,NaN,NaN,NaN,0,0,0,0,NaN,NaN,NaN,NaN,NaN,NaN,NaN,NaN,0,0,0,0,NaN,NaN,NaN,NaN,1,0,1,0,0,26,26,26,NaN,NaN,NaN,NaN,NaN,NaN,NaN,NaN,NaN,NaN,NaN,NaN,NaN,NaN,NaN,NaN,NaN,NaN,NaN,NaN,NaN,"",NaN,NaN,NaN,NaN,NaN,NaN,NaN,NaN,NaN,NaN,NaN,,,NaN,NaN,NaN,NaN,1145.09159480035,1145.09159480035,1145.09159480035,1145.09159480035,1145.09159480035,1.90432098765432,1.58243970014155,ScrollUp,정답,1146.67283690022,1146.67283690022,1147.17270090012,1147.67837169999,NaN,,,,NaN,NaN,NaN,,NaN,NaN,NaN,NaN,NaN,NaN,NaN,NaN+0i,NaN+0i,NaN,NaN,NaN,NaN,11,64,남자,yes,yes,yes,yes,no,2023-08-01_10h31.47.839,Main,2022.2.4,60.1405002002043
28,넌 감성적이야,3,Green,B,4.125,4.16666666666667,ScrollUp,ScrollDown,Green.png,2,Neutral,Neutral,,,NaN,,,NaN,NaN,NaN,NaN,NaN,NaN,NaN,NaN,NaN,NaN,NaN,NaN,0,0,0,0,NaN,NaN,NaN,NaN,NaN,NaN,NaN,NaN,0,0,0,0,NaN,NaN,NaN,NaN,1,0,1,0,0,27,27,27,NaN,NaN,NaN,NaN,NaN,NaN,NaN,NaN,NaN,NaN,NaN,NaN,NaN,NaN,NaN,NaN,NaN,NaN,NaN,NaN,NaN,"",NaN,NaN,NaN,NaN,NaN,NaN,NaN,NaN,NaN,NaN,NaN,,,NaN,NaN,NaN,NaN,1147.67837169999,1147.67837169999,1147.67837169999,1147.67837169999,1147.67837169999,1.88734567901235,1.58370860014111,ScrollUp,정답,1149.27261140011,1149.27261140011,1149.77276670001,1150.28547120001,NaN,,,,NaN,NaN,NaN,,NaN,NaN,NaN,NaN,NaN,NaN,NaN,NaN+0i,NaN+0i,NaN,NaN,NaN,NaN,11,64,남자,yes,yes,yes,yes,no,2023-08-01_10h31.47.839,Main,2022.2.4,60.1405002002043
29,넌 배려심있어,1,Orange,A,6.08333333333333,5.5,ScrollDown,ScrollUp,Orange.png,2,Positive,Congruent,,,NaN,,,NaN,NaN,NaN,NaN,NaN,NaN,NaN,NaN,NaN,NaN,NaN,NaN,0,0,0,0,NaN,NaN,NaN,NaN,NaN,NaN,NaN,NaN,0,0,0,0,NaN,NaN,NaN,NaN,1,0,1,0,0,28,28,28,NaN,NaN,NaN,NaN,NaN,NaN,NaN,NaN,NaN,NaN,NaN,NaN,NaN,NaN,NaN,NaN,NaN,NaN,NaN,NaN,NaN,"",NaN,NaN,NaN,NaN,NaN,NaN,NaN,NaN,NaN,NaN,NaN,,,NaN,NaN,NaN,NaN,1150.28547120001,1150.28547120001,1150.28547120001,1150.28547120001,1150.28547120001,1.24537037037037,1.28394709993154,ScrollDown,정답,1151.5730402004,1151.5730402004,1152.07307359995,1152.58913460001,NaN,,,,NaN,NaN,NaN,,NaN,NaN,NaN,NaN,NaN,NaN,NaN,NaN+0i,NaN+0i,NaN,NaN,NaN,NaN,11,64,남자,yes,yes,yes,yes,no,2023-08-01_10h31.47.839,Main,2022.2.4,60.1405002002043
30,넌 숨김없어,3,Orange,A,4.5,4.93333333333333,ScrollDown,ScrollUp,Orange.png,2,Neutral,Neutral,,,NaN,,,NaN,NaN,NaN,NaN,NaN,NaN,NaN,NaN,NaN,NaN,NaN,NaN,0,0,0,0,NaN,NaN,NaN,NaN,NaN,NaN,NaN,NaN,0,0,0,0,NaN,NaN,NaN,NaN,1,0,1,0,0,29,29,29,NaN,NaN,NaN,NaN,NaN,NaN,NaN,NaN,NaN,NaN,NaN,NaN,NaN,NaN,NaN,NaN,NaN,NaN,NaN,NaN,NaN,"",NaN,NaN,NaN,NaN,NaN,NaN,NaN,NaN,NaN,NaN,NaN,,,NaN,NaN,NaN,NaN,1152.58913460001,1152.58913460001,1152.58913460001,1152.58913460001,1152.58913460001,1.27623456790123,2.43373449984938,ScrollDown,정답,1155.02312020026,1155.02312020026,1155.52261700016,1156.03532040026,NaN,,,,NaN,NaN,NaN,,NaN,NaN,NaN,NaN,NaN,NaN,NaN,NaN+0i,NaN+0i,NaN,NaN,NaN,NaN,11,64,남자,yes,yes,yes,yes,no,2023-08-01_10h31.47.839,Main,2022.2.4,60.1405002002043
31,넌 훌륭해,2,Green,B,5.91666666666667,4.03333333333333,ScrollUp,ScrollDown,Green.png,2,Positive,Incongruent,,,NaN,,,NaN,NaN,NaN,NaN,NaN,NaN,NaN,NaN,NaN,NaN,NaN,NaN,0,0,0,0,NaN,NaN,NaN,NaN,NaN,NaN,NaN,NaN,0,0,0,0,NaN,NaN,NaN,NaN,1,0,1,0,0,30,30,30,NaN,NaN,NaN,NaN,NaN,NaN,NaN,NaN,NaN,NaN,NaN,NaN,NaN,NaN,NaN,NaN,NaN,NaN,NaN,NaN,NaN,"",NaN,NaN,NaN,NaN,NaN,NaN,NaN,NaN,NaN,NaN,NaN,,,NaN,NaN,NaN,NaN,1156.03532040026,1156.03532040026,1156.03532040026,1156.03532040026,1156.03532040026,2,1.44890740001574,ScrollUp,정답,1157.48965879995,1157.48965879995,1157.98915420007,1158.49821959995,NaN,,,,NaN,NaN,NaN,,NaN,NaN,NaN,NaN,NaN,NaN,NaN,NaN+0i,NaN+0i,NaN,NaN,NaN,NaN,11,64,남자,yes,yes,yes,yes,no,2023-08-01_10h31.47.839,Main,2022.2.4,60.1405002002043
32,넌 슬기로워,2,Orange,A,6.16666666666667,4.1,ScrollDown,ScrollUp,Orange.png,2,Positive,Congruent,,,NaN,,,NaN,NaN,NaN,NaN,NaN,NaN,NaN,NaN,NaN,NaN,NaN,NaN,0,0,0,0,NaN,NaN,NaN,NaN,NaN,NaN,NaN,NaN,0,0,0,0,NaN,NaN,NaN,NaN,1,0,1,0,0,31,31,31,NaN,NaN,NaN,NaN,NaN,NaN,NaN,NaN,NaN,NaN,NaN,NaN,NaN,NaN,NaN,NaN,NaN,NaN,NaN,NaN,NaN,"",NaN,NaN,NaN,NaN,NaN,NaN,NaN,NaN,NaN,NaN,NaN,,,NaN,NaN,NaN,NaN,1158.49821959995,1158.49821959995,1158.49821959995,1158.49821959995,1158.49821959995,1.36574074074074,2.34886239981279,ScrollDown,정답,1160.85572570004,1160.85572570004,1161.35574940033,1161.86604190012,NaN,,,,NaN,NaN,NaN,,NaN,NaN,NaN,NaN,NaN,NaN,NaN,NaN+0i,NaN+0i,NaN,NaN,NaN,NaN,11,64,남자,yes,yes,yes,yes,no,2023-08-01_10h31.47.839,Main,2022.2.4,60.1405002002043
33,넌 냉혹해,5,Orange,A,2.58333333333333,2.1,ScrollDown,ScrollUp,Orange.png,2,Negative,Incongruent,,,NaN,,,NaN,NaN,NaN,NaN,NaN,NaN,NaN,NaN,NaN,NaN,NaN,NaN,0,0,0,0,NaN,NaN,NaN,NaN,NaN,NaN,NaN,NaN,0,0,0,0,NaN,NaN,NaN,NaN,1,0,1,0,0,32,32,32,NaN,NaN,NaN,NaN,NaN,NaN,NaN,NaN,NaN,NaN,NaN,NaN,NaN,NaN,NaN,NaN,NaN,NaN,NaN,NaN,NaN,"",NaN,NaN,NaN,NaN,NaN,NaN,NaN,NaN,NaN,NaN,NaN,,,NaN,NaN,NaN,NaN,1161.86604190012,1161.86604190012,1161.86604190012,1161.86604190012,1161.86604190012,1.23456790123457,1.11599390022457,ScrollDown,정답,1162.98930460028,1162.98930460028,1163.48903470021,1163.99527620012,NaN,,,,NaN,NaN,NaN,,NaN,NaN,NaN,NaN,NaN,NaN,NaN,NaN+0i,NaN+0i,NaN,NaN,NaN,NaN,11,64,남자,yes,yes,yes,yes,no,2023-08-01_10h31.47.839,Main,2022.2.4,60.1405002002043
34,나를 데려가줘,6,Green,B,0,0,ScrollDown,ScrollUp,Green.png,2,NonTarget,NonTarget,,,NaN,,,NaN,NaN,NaN,NaN,NaN,NaN,NaN,NaN,NaN,NaN,NaN,NaN,0,0,0,0,NaN,NaN,NaN,NaN,NaN,NaN,NaN,NaN,0,0,0,0,NaN,NaN,NaN,NaN,1,0,1,0,0,33,33,33,NaN,NaN,NaN,NaN,NaN,NaN,NaN,NaN,NaN,NaN,NaN,NaN,NaN,NaN,NaN,NaN,NaN,NaN,NaN,NaN,NaN,"",NaN,NaN,NaN,NaN,NaN,NaN,NaN,NaN,NaN,NaN,NaN,,,NaN,NaN,NaN,NaN,1163.99527620012,1163.99527620012,1163.99527620012,1163.99527620012,1163.99527620012,1.8070987654321,1.31687830016017,ScrollUp,오답,1165.32262780005,1165.32262780005,1165.82276999997,1166.33271030011,NaN,,,,NaN,NaN,NaN,,NaN,NaN,NaN,NaN,NaN,NaN,NaN,NaN+0i,NaN+0i,NaN,NaN,NaN,NaN,11,64,남자,yes,yes,yes,yes,no,2023-08-01_10h31.47.839,Main,2022.2.4,60.1405002002043
35,넌 편파적이야,5,Green,B,2.125,2,ScrollUp,ScrollDown,Green.png,2,Negative,Congruent,,,NaN,,,NaN,NaN,NaN,NaN,NaN,NaN,NaN,NaN,NaN,NaN,NaN,NaN,0,0,0,0,NaN,NaN,NaN,NaN,NaN,NaN,NaN,NaN,0,0,0,0,NaN,NaN,NaN,NaN,1,0,1,0,0,34,34,34,NaN,NaN,NaN,NaN,NaN,NaN,NaN,NaN,NaN,NaN,NaN,NaN,NaN,NaN,NaN,NaN,NaN,NaN,NaN,NaN,NaN,"",NaN,NaN,NaN,NaN,NaN,NaN,NaN,NaN,NaN,NaN,NaN,,,NaN,NaN,NaN,NaN,1166.33271030011,1166.33271030011,1166.33271030011,1166.33271030011,1166.33271030011,1.84567901234568,2.1667427001521,ScrollUp,정답,1168.50555310026,1168.50555310026,1169.00610790029,1169.51273900038,NaN,,,,NaN,NaN,NaN,,NaN,NaN,NaN,NaN,NaN,NaN,NaN,NaN+0i,NaN+0i,NaN,NaN,NaN,NaN,11,64,남자,yes,yes,yes,yes,no,2023-08-01_10h31.47.839,Main,2022.2.4,60.1405002002043
36,넌 슬퍼,4,Orange,A,2.58333333333333,3.06666666666667,ScrollDown,ScrollUp,Orange.png,2,Negative,Incongruent,,,NaN,,,NaN,NaN,NaN,NaN,NaN,NaN,NaN,NaN,NaN,NaN,NaN,NaN,0,0,0,0,NaN,NaN,NaN,NaN,NaN,NaN,NaN,NaN,0,0,0,0,NaN,NaN,NaN,NaN,1,0,1,0,0,35,35,35,NaN,NaN,NaN,NaN,NaN,NaN,NaN,NaN,NaN,NaN,NaN,NaN,NaN,NaN,NaN,NaN,NaN,NaN,NaN,NaN,NaN,"",NaN,NaN,NaN,NaN,NaN,NaN,NaN,NaN,NaN,NaN,NaN,,,NaN,NaN,NaN,NaN,1169.51273900038,1169.51273900038,1169.51273900038,1169.51273900038,1169.51273900038,1.28240740740741,1.25043680006638,ScrollDown,정답,1170.77268559998,1170.77268559998,1171.2733985004,1171.77832540032,NaN,,,,NaN,NaN,NaN,,NaN,NaN,NaN,NaN,NaN,NaN,NaN,NaN+0i,NaN+0i,NaN,NaN,NaN,NaN,11,64,남자,yes,yes,yes,yes,no,2023-08-01_10h31.47.839,Main,2022.2.4,60.1405002002043
37,나를 데려가줘,6,Green,B,0,0,ScrollDown,ScrollUp,Green.png,2,NonTarget,NonTarget,,,NaN,,,NaN,NaN,NaN,NaN,NaN,NaN,NaN,NaN,NaN,NaN,NaN,NaN,0,0,0,0,NaN,NaN,NaN,NaN,NaN,NaN,NaN,NaN,0,0,0,0,NaN,NaN,NaN,NaN,1,0,1,0,0,36,36,36,NaN,NaN,NaN,NaN,NaN,NaN,NaN,NaN,NaN,NaN,NaN,NaN,NaN,NaN,NaN,NaN,NaN,NaN,NaN,NaN,NaN,"",NaN,NaN,NaN,NaN,NaN,NaN,NaN,NaN,NaN,NaN,NaN,,,NaN,NaN,NaN,NaN,1171.77832540032,1171.77832540032,1171.77832540032,1171.77832540032,1171.77832540032,1.21604938271605,1.86549759982154,ScrollDown,정답,1173.65627360018,1173.65627360018,1174.15578290028,1174.66505119996,NaN,,,,NaN,NaN,NaN,,NaN,NaN,NaN,NaN,NaN,NaN,NaN,NaN+0i,NaN+0i,NaN,NaN,NaN,NaN,11,64,남자,yes,yes,yes,yes,no,2023-08-01_10h31.47.839,Main,2022.2.4,60.1405002002043
38,넌 친절해,1,Green,B,6.04166666666667,5.53333333333333,ScrollUp,ScrollDown,Green.png,2,Positive,Incongruent,,,NaN,,,NaN,NaN,NaN,NaN,NaN,NaN,NaN,NaN,NaN,NaN,NaN,NaN,0,0,0,0,NaN,NaN,NaN,NaN,NaN,NaN,NaN,NaN,0,0,0,0,NaN,NaN,NaN,NaN,1,0,1,0,0,37,37,37,NaN,NaN,NaN,NaN,NaN,NaN,NaN,NaN,NaN,NaN,NaN,NaN,NaN,NaN,NaN,NaN,NaN,NaN,NaN,NaN,NaN,"",NaN,NaN,NaN,NaN,NaN,NaN,NaN,NaN,NaN,NaN,NaN,,,NaN,NaN,NaN,NaN,1174.66505119996,1174.66505119996,1174.66505119996,1174.66505119996,1174.66505119996,1.97530864197531,1.48314779996872,ScrollUp,정답,1176.1557214004,1176.1557214004,1176.6562760002,1177.15600079997,NaN,,,,NaN,NaN,NaN,,NaN,NaN,NaN,NaN,NaN,NaN,NaN,NaN+0i,NaN+0i,NaN,NaN,NaN,NaN,11,64,남자,yes,yes,yes,yes,no,2023-08-01_10h31.47.839,Main,2022.2.4,60.1405002002043
NaN,,NaN,,,NaN,NaN,,,,NaN,,,,,NaN,,,NaN,NaN,NaN,NaN,NaN,NaN,NaN,NaN,NaN,NaN,NaN,NaN,0,0,0,0,NaN,NaN,NaN,NaN,NaN,NaN,NaN,NaN,0,0,0,0,NaN,NaN,NaN,NaN,1,0,1,0,NaN,NaN,NaN,NaN,0,0,0,0,NaN,NaN,NaN,NaN,NaN,NaN,NaN,NaN,NaN,NaN,NaN,NaN,NaN,NaN,NaN,NaN,NaN,"",NaN,NaN,NaN,NaN,NaN,NaN,NaN,NaN,NaN,NaN,NaN,,,NaN,NaN,NaN,NaN,NaN,NaN,NaN,NaN,NaN,NaN,NaN,,,NaN,NaN,NaN,NaN,3,,,,NaN,NaN,NaN,,NaN,NaN,NaN,NaN,NaN,NaN,NaN,NaN+0i,NaN+0i,NaN,NaN,NaN,NaN,11,64,남자,yes,yes,yes,yes,no,2023-08-01_10h31.47.839,Main,2022.2.4,60.1405002002043
NaN,,NaN,,,NaN,NaN,,,,NaN,,,,,NaN,,,NaN,NaN,NaN,NaN,NaN,NaN,NaN,NaN,NaN,NaN,NaN,NaN,0,0,0,0,NaN,NaN,NaN,NaN,NaN,NaN,NaN,NaN,0,0,0,0,NaN,NaN,NaN,NaN,1,0,1,0,NaN,NaN,NaN,NaN,NaN,NaN,NaN,NaN,NaN,NaN,NaN,NaN,NaN,NaN,NaN,NaN,NaN,NaN,NaN,NaN,NaN,NaN,NaN,NaN,NaN,"",NaN,NaN,NaN,NaN,NaN,NaN,NaN,NaN,NaN,NaN,NaN,,,NaN,NaN,NaN,NaN,NaN,NaN,NaN,NaN,NaN,NaN,NaN,,,NaN,NaN,NaN,NaN,NaN,,,,NaN,NaN,NaN,,NaN,NaN,NaN,NaN,NaN,NaN,NaN,NaN+0i,NaN+0i,NaN,NaN,NaN,NaN,11,64,남자,yes,yes,yes,yes,no,2023-08-01_10h31.47.839,Main,2022.2.4,60.1405002002043
1,넌 엉성해,4,Orange,A,3,3.3,ScrollDown,ScrollUp,Orange.png,3,Negative,Incongruent,,,NaN,,,NaN,NaN,NaN,NaN,NaN,NaN,NaN,NaN,NaN,NaN,NaN,NaN,0,0,0,0,NaN,NaN,NaN,NaN,NaN,NaN,NaN,NaN,0,0,0,0,NaN,NaN,NaN,NaN,2,0,2,0,0,0,0,0,NaN,NaN,NaN,NaN,NaN,NaN,NaN,NaN,NaN,NaN,NaN,NaN,NaN,NaN,NaN,NaN,NaN,NaN,NaN,NaN,NaN,"",NaN,NaN,NaN,NaN,NaN,NaN,NaN,NaN,NaN,NaN,NaN,,,NaN,NaN,NaN,NaN,1218.04967300035,1218.04967300035,1218.04967300035,1218.04967300035,1218.04967300035,1.05864197530864,1.28490639990196,ScrollDown,정답,1219.33905700035,1219.33905700035,1219.83915130002,1220.34941090038,NaN,,,,NaN,NaN,NaN,,NaN,NaN,NaN,NaN,NaN,NaN,NaN,NaN+0i,NaN+0i,NaN,NaN,NaN,NaN,11,64,남자,yes,yes,yes,yes,no,2023-08-01_10h31.47.839,Main,2022.2.4,60.1405002002043
2,나를 보내줘,6,Orange,A,0,0,ScrollUp,ScrollDown,Orange.png,3,NonTarget,NonTarget,,,NaN,,,NaN,NaN,NaN,NaN,NaN,NaN,NaN,NaN,NaN,NaN,NaN,NaN,0,0,0,0,NaN,NaN,NaN,NaN,NaN,NaN,NaN,NaN,0,0,0,0,NaN,NaN,NaN,NaN,2,0,2,0,0,1,1,1,NaN,NaN,NaN,NaN,NaN,NaN,NaN,NaN,NaN,NaN,NaN,NaN,NaN,NaN,NaN,NaN,NaN,NaN,NaN,NaN,NaN,"",NaN,NaN,NaN,NaN,NaN,NaN,NaN,NaN,NaN,NaN,NaN,,,NaN,NaN,NaN,NaN,1220.34941090038,1220.34941090038,1220.34941090038,1220.34941090038,1220.34941090038,1.875,2.04883269965649,ScrollUp,정답,1222.4060607003,1222.4060607003,1222.90576270036,1223.41742740013,NaN,,,,NaN,NaN,NaN,,NaN,NaN,NaN,NaN,NaN,NaN,NaN,NaN+0i,NaN+0i,NaN,NaN,NaN,NaN,11,64,남자,yes,yes,yes,yes,no,2023-08-01_10h31.47.839,Main,2022.2.4,60.1405002002043
3,넌 활발해,1,Green,B,5.66666666666667,5.6,ScrollUp,ScrollDown,Green.png,3,Positive,Incongruent,,,NaN,,,NaN,NaN,NaN,NaN,NaN,NaN,NaN,NaN,NaN,NaN,NaN,NaN,0,0,0,0,NaN,NaN,NaN,NaN,NaN,NaN,NaN,NaN,0,0,0,0,NaN,NaN,NaN,NaN,2,0,2,0,0,2,2,2,NaN,NaN,NaN,NaN,NaN,NaN,NaN,NaN,NaN,NaN,NaN,NaN,NaN,NaN,NaN,NaN,NaN,NaN,NaN,NaN,NaN,"",NaN,NaN,NaN,NaN,NaN,NaN,NaN,NaN,NaN,NaN,NaN,,,NaN,NaN,NaN,NaN,1223.41742740013,1223.41742740013,1223.41742740013,1223.41742740013,1223.41742740013,1.76234567901235,1.93271710025147,ScrollUp,정답,1225.35584340012,1225.35584340012,1225.85593389999,1226.36540989997,NaN,,,,NaN,NaN,NaN,,NaN,NaN,NaN,NaN,NaN,NaN,NaN,NaN+0i,NaN+0i,NaN,NaN,NaN,NaN,11,64,남자,yes,yes,yes,yes,no,2023-08-01_10h31.47.839,Main,2022.2.4,60.1405002002043
4,넌 논리적이야,2,Orange,A,5.66666666666667,4.63333333333333,ScrollDown,ScrollUp,Orange.png,3,Positive,Congruent,,,NaN,,,NaN,NaN,NaN,NaN,NaN,NaN,NaN,NaN,NaN,NaN,NaN,NaN,0,0,0,0,NaN,NaN,NaN,NaN,NaN,NaN,NaN,NaN,0,0,0,0,NaN,NaN,NaN,NaN,2,0,2,0,0,3,3,3,NaN,NaN,NaN,NaN,NaN,NaN,NaN,NaN,NaN,NaN,NaN,NaN,NaN,NaN,NaN,NaN,NaN,NaN,NaN,NaN,NaN,"",NaN,NaN,NaN,NaN,NaN,NaN,NaN,NaN,NaN,NaN,NaN,,,NaN,NaN,NaN,NaN,1226.36540989997,1226.36540989997,1226.36540989997,1226.36540989997,1226.36540989997,1,1.7016288000159,ScrollDown,정답,1228.07296829997,1228.07296829997,1228.57277880004,1229.08182430035,NaN,,,,NaN,NaN,NaN,,NaN,NaN,NaN,NaN,NaN,NaN,NaN,NaN+0i,NaN+0i,NaN,NaN,NaN,NaN,11,64,남자,yes,yes,yes,yes,no,2023-08-01_10h31.47.839,Main,2022.2.4,60.1405002002043
5,넌 과묵해,3,Orange,A,3.875,4.4,ScrollDown,ScrollUp,Orange.png,3,Neutral,Neutral,,,NaN,,,NaN,NaN,NaN,NaN,NaN,NaN,NaN,NaN,NaN,NaN,NaN,NaN,0,0,0,0,NaN,NaN,NaN,NaN,NaN,NaN,NaN,NaN,0,0,0,0,NaN,NaN,NaN,NaN,2,0,2,0,0,4,4,4,NaN,NaN,NaN,NaN,NaN,NaN,NaN,NaN,NaN,NaN,NaN,NaN,NaN,NaN,NaN,NaN,NaN,NaN,NaN,NaN,NaN,"",NaN,NaN,NaN,NaN,NaN,NaN,NaN,NaN,NaN,NaN,NaN,,,NaN,NaN,NaN,NaN,1229.08182430035,1229.08182430035,1229.08182430035,1229.08182430035,1229.08182430035,1,1.66654329979792,ScrollDown,정답,1230.75596640026,1230.75596640026,1231.25583819998,1231.76305440022,NaN,,,,NaN,NaN,NaN,,NaN,NaN,NaN,NaN,NaN,NaN,NaN,NaN+0i,NaN+0i,NaN,NaN,NaN,NaN,11,64,남자,yes,yes,yes,yes,no,2023-08-01_10h31.47.839,Main,2022.2.4,60.1405002002043
6,나를 데려가줘,6,Green,B,0,0,ScrollDown,ScrollUp,Green.png,3,NonTarget,NonTarget,,,NaN,,,NaN,NaN,NaN,NaN,NaN,NaN,NaN,NaN,NaN,NaN,NaN,NaN,0,0,0,0,NaN,NaN,NaN,NaN,NaN,NaN,NaN,NaN,0,0,0,0,NaN,NaN,NaN,NaN,2,0,2,0,0,5,5,5,NaN,NaN,NaN,NaN,NaN,NaN,NaN,NaN,NaN,NaN,NaN,NaN,NaN,NaN,NaN,NaN,NaN,NaN,NaN,NaN,NaN,"",NaN,NaN,NaN,NaN,NaN,NaN,NaN,NaN,NaN,NaN,NaN,,,NaN,NaN,NaN,NaN,1231.76305440022,1231.76305440022,1231.76305440022,1231.76305440022,1231.76305440022,1.2037037037037,1.76598419994116,ScrollDown,정답,1233.5390149001,1233.5390149001,1234.03913220018,1234.54311940027,NaN,,,,NaN,NaN,NaN,,NaN,NaN,NaN,NaN,NaN,NaN,NaN,NaN+0i,NaN+0i,NaN,NaN,NaN,NaN,11,64,남자,yes,yes,yes,yes,no,2023-08-01_10h31.47.839,Main,2022.2.4,60.1405002002043
7,넌 미숙해,4,Green,B,3,3,ScrollUp,ScrollDown,Green.png,3,Negative,Congruent,,,NaN,,,NaN,NaN,NaN,NaN,NaN,NaN,NaN,NaN,NaN,NaN,NaN,NaN,0,0,0,0,NaN,NaN,NaN,NaN,NaN,NaN,NaN,NaN,0,0,0,0,NaN,NaN,NaN,NaN,2,0,2,0,0,6,6,6,NaN,NaN,NaN,NaN,NaN,NaN,NaN,NaN,NaN,NaN,NaN,NaN,NaN,NaN,NaN,NaN,NaN,NaN,NaN,NaN,NaN,"",NaN,NaN,NaN,NaN,NaN,NaN,NaN,NaN,NaN,NaN,NaN,,,NaN,NaN,NaN,NaN,1234.54311940027,1234.54311940027,1234.54311940027,1234.54311940027,1234.54311940027,1.8858024691358,1.58316899975762,ScrollUp,정답,1236.14037619997,1236.14037619997,1236.63926720014,1237.14611029997,NaN,,,,NaN,NaN,NaN,,NaN,NaN,NaN,NaN,NaN,NaN,NaN,NaN+0i,NaN+0i,NaN,NaN,NaN,NaN,11,64,남자,yes,yes,yes,yes,no,2023-08-01_10h31.47.839,Main,2022.2.4,60.1405002002043
8,나를 보내줘,6,Orange,A,0,0,ScrollUp,ScrollDown,Orange.png,3,NonTarget,NonTarget,,,NaN,,,NaN,NaN,NaN,NaN,NaN,NaN,NaN,NaN,NaN,NaN,NaN,NaN,0,0,0,0,NaN,NaN,NaN,NaN,NaN,NaN,NaN,NaN,0,0,0,0,NaN,NaN,NaN,NaN,2,0,2,0,0,7,7,7,NaN,NaN,NaN,NaN,NaN,NaN,NaN,NaN,NaN,NaN,NaN,NaN,NaN,NaN,NaN,NaN,NaN,NaN,NaN,NaN,NaN,"",NaN,NaN,NaN,NaN,NaN,NaN,NaN,NaN,NaN,NaN,NaN,,,NaN,NaN,NaN,NaN,1237.14611029997,1237.14611029997,1237.14611029997,1237.14611029997,1237.14611029997,1.99382716049383,1.98189949989319,ScrollUp,정답,1239.1392469001,1239.1392469001,1239.63919190038,1240.1448706002,NaN,,,,NaN,NaN,NaN,,NaN,NaN,NaN,NaN,NaN,NaN,NaN,NaN+0i,NaN+0i,NaN,NaN,NaN,NaN,11,64,남자,yes,yes,yes,yes,no,2023-08-01_10h31.47.839,Main,2022.2.4,60.1405002002043
9,넌 자신만만해,3,Green,B,4.83333333333333,4.33333333333333,ScrollUp,ScrollDown,Green.png,3,Neutral,Neutral,,,NaN,,,NaN,NaN,NaN,NaN,NaN,NaN,NaN,NaN,NaN,NaN,NaN,NaN,0,0,0,0,NaN,NaN,NaN,NaN,NaN,NaN,NaN,NaN,0,0,0,0,NaN,NaN,NaN,NaN,2,0,2,0,0,8,8,8,NaN,NaN,NaN,NaN,NaN,NaN,NaN,NaN,NaN,NaN,NaN,NaN,NaN,NaN,NaN,NaN,NaN,NaN,NaN,NaN,NaN,"",NaN,NaN,NaN,NaN,NaN,NaN,NaN,NaN,NaN,NaN,NaN,,,NaN,NaN,NaN,NaN,1240.1448706002,1240.1448706002,1240.1448706002,1240.1448706002,1240.1448706002,1.86574074074074,1.71652080025524,ScrollUp,정답,1241.87267010007,1241.87267010007,1242.37269290024,1242.89500330016,NaN,,,,NaN,NaN,NaN,,NaN,NaN,NaN,NaN,NaN,NaN,NaN,NaN+0i,NaN+0i,NaN,NaN,NaN,NaN,11,64,남자,yes,yes,yes,yes,no,2023-08-01_10h31.47.839,Main,2022.2.4,60.1405002002043
10,넌 탐욕스러워,5,Orange,A,2.25,2.1,ScrollDown,ScrollUp,Orange.png,3,Negative,Incongruent,,,NaN,,,NaN,NaN,NaN,NaN,NaN,NaN,NaN,NaN,NaN,NaN,NaN,NaN,0,0,0,0,NaN,NaN,NaN,NaN,NaN,NaN,NaN,NaN,0,0,0,0,NaN,NaN,NaN,NaN,2,0,2,0,0,9,9,9,NaN,NaN,NaN,NaN,NaN,NaN,NaN,NaN,NaN,NaN,NaN,NaN,NaN,NaN,NaN,NaN,NaN,NaN,NaN,NaN,NaN,"",NaN,NaN,NaN,NaN,NaN,NaN,NaN,NaN,NaN,NaN,NaN,,,NaN,NaN,NaN,NaN,1242.89500330016,1242.89500330016,1242.89500330016,1242.89500330016,1242.89500330016,1.2037037037037,1.54954469995573,ScrollDown,정답,1244.43904820038,1244.43904820038,1244.93911859998,1245.44534970028,NaN,,,,NaN,NaN,NaN,,NaN,NaN,NaN,NaN,NaN,NaN,NaN,NaN+0i,NaN+0i,NaN,NaN,NaN,NaN,11,64,남자,yes,yes,yes,yes,no,2023-08-01_10h31.47.839,Main,2022.2.4,60.1405002002043
11,넌 인기있어,2,Orange,A,5.45833333333333,4.5,ScrollDown,ScrollUp,Orange.png,3,Positive,Congruent,,,NaN,,,NaN,NaN,NaN,NaN,NaN,NaN,NaN,NaN,NaN,NaN,NaN,NaN,0,0,0,0,NaN,NaN,NaN,NaN,NaN,NaN,NaN,NaN,0,0,0,0,NaN,NaN,NaN,NaN,2,0,2,0,0,10,10,10,NaN,NaN,NaN,NaN,NaN,NaN,NaN,NaN,NaN,NaN,NaN,NaN,NaN,NaN,NaN,NaN,NaN,NaN,NaN,NaN,NaN,"",NaN,NaN,NaN,NaN,NaN,NaN,NaN,NaN,NaN,NaN,NaN,,,NaN,NaN,NaN,NaN,1245.44534970028,1245.44534970028,1245.44534970028,1245.44534970028,1245.44534970028,1.07098765432099,1.46615230012685,ScrollDown,정답,1246.92244670028,1246.92244670028,1247.42318599997,1247.93233730039,NaN,,,,NaN,NaN,NaN,,NaN,NaN,NaN,NaN,NaN,NaN,NaN,NaN+0i,NaN+0i,NaN,NaN,NaN,NaN,11,64,남자,yes,yes,yes,yes,no,2023-08-01_10h31.47.839,Main,2022.2.4,60.1405002002043
12,나를 데려가줘,6,Green,B,0,0,ScrollDown,ScrollUp,Green.png,3,NonTarget,NonTarget,,,NaN,,,NaN,NaN,NaN,NaN,NaN,NaN,NaN,NaN,NaN,NaN,NaN,NaN,0,0,0,0,NaN,NaN,NaN,NaN,NaN,NaN,NaN,NaN,0,0,0,0,NaN,NaN,NaN,NaN,2,0,2,0,0,11,11,11,NaN,NaN,NaN,NaN,NaN,NaN,NaN,NaN,NaN,NaN,NaN,NaN,NaN,NaN,NaN,NaN,NaN,NaN,NaN,NaN,NaN,"",NaN,NaN,NaN,NaN,NaN,NaN,NaN,NaN,NaN,NaN,NaN,,,NaN,NaN,NaN,NaN,1247.93233730039,1247.93233730039,1247.93233730039,1247.93233730039,1247.93233730039,1.22993827160494,2.03174789994955,ScrollDown,정답,1249.97263490036,1249.97263490036,1250.47268130025,1250.98245610017,NaN,,,,NaN,NaN,NaN,,NaN,NaN,NaN,NaN,NaN,NaN,NaN,NaN+0i,NaN+0i,NaN,NaN,NaN,NaN,11,64,남자,yes,yes,yes,yes,no,2023-08-01_10h31.47.839,Main,2022.2.4,60.1405002002043
13,넌 뛰어나,2,Green,B,6.16666666666667,4,ScrollUp,ScrollDown,Green.png,3,Positive,Incongruent,,,NaN,,,NaN,NaN,NaN,NaN,NaN,NaN,NaN,NaN,NaN,NaN,NaN,NaN,0,0,0,0,NaN,NaN,NaN,NaN,NaN,NaN,NaN,NaN,0,0,0,0,NaN,NaN,NaN,NaN,2,0,2,0,0,12,12,12,NaN,NaN,NaN,NaN,NaN,NaN,NaN,NaN,NaN,NaN,NaN,NaN,NaN,NaN,NaN,NaN,NaN,NaN,NaN,NaN,NaN,"",NaN,NaN,NaN,NaN,NaN,NaN,NaN,NaN,NaN,NaN,NaN,,,NaN,NaN,NaN,NaN,1250.98245610017,1250.98245610017,1250.98245610017,1250.98245610017,1250.98245610017,1.78549382716049,1.43253119988367,ScrollUp,정답,1252.42286990024,1252.42286990024,1252.92262820015,1253.4369253004,NaN,,,,NaN,NaN,NaN,,NaN,NaN,NaN,NaN,NaN,NaN,NaN,NaN+0i,NaN+0i,NaN,NaN,NaN,NaN,11,64,남자,yes,yes,yes,yes,no,2023-08-01_10h31.47.839,Main,2022.2.4,60.1405002002043
14,넌 낙관적이야,1,Orange,A,5.75,5.8,ScrollDown,ScrollUp,Orange.png,3,Positive,Congruent,,,NaN,,,NaN,NaN,NaN,NaN,NaN,NaN,NaN,NaN,NaN,NaN,NaN,NaN,0,0,0,0,NaN,NaN,NaN,NaN,NaN,NaN,NaN,NaN,0,0,0,0,NaN,NaN,NaN,NaN,2,0,2,0,0,13,13,13,NaN,NaN,NaN,NaN,NaN,NaN,NaN,NaN,NaN,NaN,NaN,NaN,NaN,NaN,NaN,NaN,NaN,NaN,NaN,NaN,NaN,"",NaN,NaN,NaN,NaN,NaN,NaN,NaN,NaN,NaN,NaN,NaN,,,NaN,NaN,NaN,NaN,1253.4369253004,1253.4369253004,1253.4369253004,1253.4369253004,1253.4369253004,1.18827160493827,1.41470899991691,ScrollDown,정답,1254.85569570027,1254.85569570027,1255.3559286003,1255.86194160022,NaN,,,,NaN,NaN,NaN,,NaN,NaN,NaN,NaN,NaN,NaN,NaN,NaN+0i,NaN+0i,NaN,NaN,NaN,NaN,11,64,남자,yes,yes,yes,yes,no,2023-08-01_10h31.47.839,Main,2022.2.4,60.1405002002043
15,넌 산만해,4,Green,B,2.69565217391304,3.03333333333333,ScrollUp,ScrollDown,Green.png,3,Negative,Congruent,,,NaN,,,NaN,NaN,NaN,NaN,NaN,NaN,NaN,NaN,NaN,NaN,NaN,NaN,0,0,0,0,NaN,NaN,NaN,NaN,NaN,NaN,NaN,NaN,0,0,0,0,NaN,NaN,NaN,NaN,2,0,2,0,0,14,14,14,NaN,NaN,NaN,NaN,NaN,NaN,NaN,NaN,NaN,NaN,NaN,NaN,NaN,NaN,NaN,NaN,NaN,NaN,NaN,NaN,NaN,"",NaN,NaN,NaN,NaN,NaN,NaN,NaN,NaN,NaN,NaN,NaN,,,NaN,NaN,NaN,NaN,1255.86194160022,1255.86194160022,1255.86194160022,1255.86194160022,1255.86194160022,1.8287037037037,1.43439280008897,ScrollUp,정답,1257.30575030018,1257.30575030018,1257.80588350026,1258.31288069999,NaN,,,,NaN,NaN,NaN,,NaN,NaN,NaN,NaN,NaN,NaN,NaN,NaN+0i,NaN+0i,NaN,NaN,NaN,NaN,11,64,남자,yes,yes,yes,yes,no,2023-08-01_10h31.47.839,Main,2022.2.4,60.1405002002043
16,나를 보내줘,6,Orange,A,0,0,ScrollUp,ScrollDown,Orange.png,3,NonTarget,NonTarget,,,NaN,,,NaN,NaN,NaN,NaN,NaN,NaN,NaN,NaN,NaN,NaN,NaN,NaN,0,0,0,0,NaN,NaN,NaN,NaN,NaN,NaN,NaN,NaN,0,0,0,0,NaN,NaN,NaN,NaN,2,0,2,0,0,15,15,15,NaN,NaN,NaN,NaN,NaN,NaN,NaN,NaN,NaN,NaN,NaN,NaN,NaN,NaN,NaN,NaN,NaN,NaN,NaN,NaN,NaN,"",NaN,NaN,NaN,NaN,NaN,NaN,NaN,NaN,NaN,NaN,NaN,,,NaN,NaN,NaN,NaN,1258.31288069999,1258.31288069999,1258.31288069999,1258.31288069999,1258.31288069999,1.85956790123457,1.56462160032243,ScrollUp,정답,1259.88899270026,1259.88899270026,1260.38911230024,1260.90397730004,NaN,,,,NaN,NaN,NaN,,NaN,NaN,NaN,NaN,NaN,NaN,NaN,NaN+0i,NaN+0i,NaN,NaN,NaN,NaN,11,64,남자,yes,yes,yes,yes,no,2023-08-01_10h31.47.839,Main,2022.2.4,60.1405002002043
17,넌 교활해,5,Green,B,2.33333333333333,2.13333333333333,ScrollUp,ScrollDown,Green.png,3,Negative,Congruent,,,NaN,,,NaN,NaN,NaN,NaN,NaN,NaN,NaN,NaN,NaN,NaN,NaN,NaN,0,0,0,0,NaN,NaN,NaN,NaN,NaN,NaN,NaN,NaN,0,0,0,0,NaN,NaN,NaN,NaN,2,0,2,0,0,16,16,16,NaN,NaN,NaN,NaN,NaN,NaN,NaN,NaN,NaN,NaN,NaN,NaN,NaN,NaN,NaN,NaN,NaN,NaN,NaN,NaN,NaN,"",NaN,NaN,NaN,NaN,NaN,NaN,NaN,NaN,NaN,NaN,NaN,,,NaN,NaN,NaN,NaN,1260.90397730004,1260.90397730004,1260.90397730004,1260.90397730004,1260.90397730004,1.93672839506173,1.54898840002716,ScrollUp,정답,1262.45662590023,1262.45662590023,1262.95581419999,1263.46369819995,NaN,,,,NaN,NaN,NaN,,NaN,NaN,NaN,NaN,NaN,NaN,NaN,NaN+0i,NaN+0i,NaN,NaN,NaN,NaN,11,64,남자,yes,yes,yes,yes,no,2023-08-01_10h31.47.839,Main,2022.2.4,60.1405002002043
18,나를 보내줘,6,Orange,A,0,0,ScrollUp,ScrollDown,Orange.png,3,NonTarget,NonTarget,,,NaN,,,NaN,NaN,NaN,NaN,NaN,NaN,NaN,NaN,NaN,NaN,NaN,NaN,0,0,0,0,NaN,NaN,NaN,NaN,NaN,NaN,NaN,NaN,0,0,0,0,NaN,NaN,NaN,NaN,2,0,2,0,0,17,17,17,NaN,NaN,NaN,NaN,NaN,NaN,NaN,NaN,NaN,NaN,NaN,NaN,NaN,NaN,NaN,NaN,NaN,NaN,NaN,NaN,NaN,"",NaN,NaN,NaN,NaN,NaN,NaN,NaN,NaN,NaN,NaN,NaN,,,NaN,NaN,NaN,NaN,1263.46369819995,1263.46369819995,1263.46369819995,1263.46369819995,1263.46369819995,1.89814814814815,1.54861230030656,ScrollUp,정답,1265.0227427003,1265.0227427003,1265.52274590032,1266.03358100029,NaN,,,,NaN,NaN,NaN,,NaN,NaN,NaN,NaN,NaN,NaN,NaN,NaN+0i,NaN+0i,NaN,NaN,NaN,NaN,11,64,남자,yes,yes,yes,yes,no,2023-08-01_10h31.47.839,Main,2022.2.4,60.1405002002043
19,넌 불친절해,5,Green,B,2.20833333333333,2.03333333333333,ScrollUp,ScrollDown,Green.png,3,Negative,Congruent,,,NaN,,,NaN,NaN,NaN,NaN,NaN,NaN,NaN,NaN,NaN,NaN,NaN,NaN,0,0,0,0,NaN,NaN,NaN,NaN,NaN,NaN,NaN,NaN,0,0,0,0,NaN,NaN,NaN,NaN,2,0,2,0,0,18,18,18,NaN,NaN,NaN,NaN,NaN,NaN,NaN,NaN,NaN,NaN,NaN,NaN,NaN,NaN,NaN,NaN,NaN,NaN,NaN,NaN,NaN,"",NaN,NaN,NaN,NaN,NaN,NaN,NaN,NaN,NaN,NaN,NaN,,,NaN,NaN,NaN,NaN,1266.03358100029,1266.03358100029,1266.03358100029,1266.03358100029,1266.03358100029,1.69135802469136,2.06573519995436,ScrollUp,정답,1268.1063717003,1268.1063717003,1268.60581380036,1269.11468979996,NaN,,,,NaN,NaN,NaN,,NaN,NaN,NaN,NaN,NaN,NaN,NaN,NaN+0i,NaN+0i,NaN,NaN,NaN,NaN,11,64,남자,yes,yes,yes,yes,no,2023-08-01_10h31.47.839,Main,2022.2.4,60.1405002002043
20,넌 지적이야,2,Green,B,5.75,4.36666666666667,ScrollUp,ScrollDown,Green.png,3,Positive,Incongruent,,,NaN,,,NaN,NaN,NaN,NaN,NaN,NaN,NaN,NaN,NaN,NaN,NaN,NaN,0,0,0,0,NaN,NaN,NaN,NaN,NaN,NaN,NaN,NaN,0,0,0,0,NaN,NaN,NaN,NaN,2,0,2,0,0,19,19,19,NaN,NaN,NaN,NaN,NaN,NaN,NaN,NaN,NaN,NaN,NaN,NaN,NaN,NaN,NaN,NaN,NaN,NaN,NaN,NaN,NaN,"",NaN,NaN,NaN,NaN,NaN,NaN,NaN,NaN,NaN,NaN,NaN,,,NaN,NaN,NaN,NaN,1269.11468979996,1269.11468979996,1269.11468979996,1269.11468979996,1269.11468979996,1.81635802469136,1.81592920003459,ScrollUp,정답,1270.93902710034,1270.93902710034,1271.43915670039,1271.95365500031,NaN,,,,NaN,NaN,NaN,,NaN,NaN,NaN,NaN,NaN,NaN,NaN,NaN+0i,NaN+0i,NaN,NaN,NaN,NaN,11,64,남자,yes,yes,yes,yes,no,2023-08-01_10h31.47.839,Main,2022.2.4,60.1405002002043
21,넌 우유부단해,4,Orange,A,2.66666666666667,3.16666666666667,ScrollDown,ScrollUp,Orange.png,3,Negative,Incongruent,,,NaN,,,NaN,NaN,NaN,NaN,NaN,NaN,NaN,NaN,NaN,NaN,NaN,NaN,0,0,0,0,NaN,NaN,NaN,NaN,NaN,NaN,NaN,NaN,0,0,0,0,NaN,NaN,NaN,NaN,2,0,2,0,0,20,20,20,NaN,NaN,NaN,NaN,NaN,NaN,NaN,NaN,NaN,NaN,NaN,NaN,NaN,NaN,NaN,NaN,NaN,NaN,NaN,NaN,NaN,"",NaN,NaN,NaN,NaN,NaN,NaN,NaN,NaN,NaN,NaN,NaN,,,NaN,NaN,NaN,NaN,1271.95365500031,1271.95365500031,1271.95365500031,1271.95365500031,1271.95365500031,1.12345679012346,1.56612609978765,ScrollDown,정답,1273.52272830019,1273.52272830019,1274.02280080039,1274.53211949999,NaN,,,,NaN,NaN,NaN,,NaN,NaN,NaN,NaN,NaN,NaN,NaN,NaN+0i,NaN+0i,NaN,NaN,NaN,NaN,11,64,남자,yes,yes,yes,yes,no,2023-08-01_10h31.47.839,Main,2022.2.4,60.1405002002043
22,나를 데려가줘,6,Green,B,0,0,ScrollDown,ScrollUp,Green.png,3,NonTarget,NonTarget,,,NaN,,,NaN,NaN,NaN,NaN,NaN,NaN,NaN,NaN,NaN,NaN,NaN,NaN,0,0,0,0,NaN,NaN,NaN,NaN,NaN,NaN,NaN,NaN,0,0,0,0,NaN,NaN,NaN,NaN,2,0,2,0,0,21,21,21,NaN,NaN,NaN,NaN,NaN,NaN,NaN,NaN,NaN,NaN,NaN,NaN,NaN,NaN,NaN,NaN,NaN,NaN,NaN,NaN,NaN,"",NaN,NaN,NaN,NaN,NaN,NaN,NaN,NaN,NaN,NaN,NaN,,,NaN,NaN,NaN,NaN,1274.53211949999,1274.53211949999,1274.53211949999,1274.53211949999,1274.53211949999,1.19753086419753,1.81562719959766,ScrollDown,정답,1276.35574340029,1276.35574340029,1276.85579890013,1277.36220540013,NaN,,,,NaN,NaN,NaN,,NaN,NaN,NaN,NaN,NaN,NaN,NaN,NaN+0i,NaN+0i,NaN,NaN,NaN,NaN,11,64,남자,yes,yes,yes,yes,no,2023-08-01_10h31.47.839,Main,2022.2.4,60.1405002002043
23,넌 성실해,1,Green,B,6.04166666666667,5.7,ScrollUp,ScrollDown,Green.png,3,Positive,Incongruent,,,NaN,,,NaN,NaN,NaN,NaN,NaN,NaN,NaN,NaN,NaN,NaN,NaN,NaN,0,0,0,0,NaN,NaN,NaN,NaN,NaN,NaN,NaN,NaN,0,0,0,0,NaN,NaN,NaN,NaN,2,0,2,0,0,22,22,22,NaN,NaN,NaN,NaN,NaN,NaN,NaN,NaN,NaN,NaN,NaN,NaN,NaN,NaN,NaN,NaN,NaN,NaN,NaN,NaN,NaN,"",NaN,NaN,NaN,NaN,NaN,NaN,NaN,NaN,NaN,NaN,NaN,,,NaN,NaN,NaN,NaN,1277.36220540013,1277.36220540013,1277.36220540013,1277.36220540013,1277.36220540013,1.9429012345679,1.81616970011964,ScrollUp,정답,1279.18925140006,1279.18925140006,1279.68916149996,1280.19607380033,NaN,,,,NaN,NaN,NaN,,NaN,NaN,NaN,NaN,NaN,NaN,NaN,NaN+0i,NaN+0i,NaN,NaN,NaN,NaN,11,64,남자,yes,yes,yes,yes,no,2023-08-01_10h31.47.839,Main,2022.2.4,60.1405002002043
24,넌 현실주의적이야,3,Orange,A,4.625,4.4,ScrollDown,ScrollUp,Orange.png,3,Neutral,Neutral,,,NaN,,,NaN,NaN,NaN,NaN,NaN,NaN,NaN,NaN,NaN,NaN,NaN,NaN,0,0,0,0,NaN,NaN,NaN,NaN,NaN,NaN,NaN,NaN,0,0,0,0,NaN,NaN,NaN,NaN,2,0,2,0,0,23,23,23,NaN,NaN,NaN,NaN,NaN,NaN,NaN,NaN,NaN,NaN,NaN,NaN,NaN,NaN,NaN,NaN,NaN,NaN,NaN,NaN,NaN,"",NaN,NaN,NaN,NaN,NaN,NaN,NaN,NaN,NaN,NaN,NaN,,,NaN,NaN,NaN,NaN,1280.19607380033,1280.19607380033,1280.19607380033,1280.19607380033,1280.19607380033,1.01543209876543,1.3494064998813,ScrollDown,정답,1281.55568490038,1281.55568490038,1282.05672720028,1282.56707120035,NaN,,,,NaN,NaN,NaN,,NaN,NaN,NaN,NaN,NaN,NaN,NaN,NaN+0i,NaN+0i,NaN,NaN,NaN,NaN,11,64,남자,yes,yes,yes,yes,no,2023-08-01_10h31.47.839,Main,2022.2.4,60.1405002002043
25,넌 진실돼,1,Orange,A,6.625,5.56666666666667,ScrollDown,ScrollUp,Orange.png,3,Positive,Congruent,,,NaN,,,NaN,NaN,NaN,NaN,NaN,NaN,NaN,NaN,NaN,NaN,NaN,NaN,0,0,0,0,NaN,NaN,NaN,NaN,NaN,NaN,NaN,NaN,0,0,0,0,NaN,NaN,NaN,NaN,2,0,2,0,0,24,24,24,NaN,NaN,NaN,NaN,NaN,NaN,NaN,NaN,NaN,NaN,NaN,NaN,NaN,NaN,NaN,NaN,NaN,NaN,NaN,NaN,NaN,"",NaN,NaN,NaN,NaN,NaN,NaN,NaN,NaN,NaN,NaN,NaN,,,NaN,NaN,NaN,NaN,1282.56707120035,1282.56707120035,1282.56707120035,1282.56707120035,1282.56707120035,1.25462962962963,1.41666400013492,ScrollDown,정답,1283.98988150014,1283.98988150014,1284.4893837003,1285.00022289995,NaN,,,,NaN,NaN,NaN,,NaN,NaN,NaN,NaN,NaN,NaN,NaN,NaN+0i,NaN+0i,NaN,NaN,NaN,NaN,11,64,남자,yes,yes,yes,yes,no,2023-08-01_10h31.47.839,Main,2022.2.4,60.1405002002043
26,넌 천진난만해,3,Green,B,4.95833333333333,4.83333333333333,ScrollUp,ScrollDown,Green.png,3,Neutral,Neutral,,,NaN,,,NaN,NaN,NaN,NaN,NaN,NaN,NaN,NaN,NaN,NaN,NaN,NaN,0,0,0,0,NaN,NaN,NaN,NaN,NaN,NaN,NaN,NaN,0,0,0,0,NaN,NaN,NaN,NaN,2,0,2,0,0,25,25,25,NaN,NaN,NaN,NaN,NaN,NaN,NaN,NaN,NaN,NaN,NaN,NaN,NaN,NaN,NaN,NaN,NaN,NaN,NaN,NaN,NaN,"",NaN,NaN,NaN,NaN,NaN,NaN,NaN,NaN,NaN,NaN,NaN,,,NaN,NaN,NaN,NaN,1285.00022289995,1285.00022289995,1285.00022289995,1285.00022289995,1285.00022289995,1.79783950617284,1.36615929985419,ScrollUp,정답,1286.37265300006,1286.37265300006,1286.8727334002,1287.38292080024,NaN,,,,NaN,NaN,NaN,,NaN,NaN,NaN,NaN,NaN,NaN,NaN,NaN+0i,NaN+0i,NaN,NaN,NaN,NaN,11,64,남자,yes,yes,yes,yes,no,2023-08-01_10h31.47.839,Main,2022.2.4,60.1405002002043
27,넌 교양없어,5,Orange,A,2.41666666666667,2.2,ScrollDown,ScrollUp,Orange.png,3,Negative,Incongruent,,,NaN,,,NaN,NaN,NaN,NaN,NaN,NaN,NaN,NaN,NaN,NaN,NaN,NaN,0,0,0,0,NaN,NaN,NaN,NaN,NaN,NaN,NaN,NaN,0,0,0,0,NaN,NaN,NaN,NaN,2,0,2,0,0,26,26,26,NaN,NaN,NaN,NaN,NaN,NaN,NaN,NaN,NaN,NaN,NaN,NaN,NaN,NaN,NaN,NaN,NaN,NaN,NaN,NaN,NaN,"",NaN,NaN,NaN,NaN,NaN,NaN,NaN,NaN,NaN,NaN,NaN,,,NaN,NaN,NaN,NaN,1287.38292080024,1287.38292080024,1287.38292080024,1287.38292080024,1287.38292080024,1.27777777777778,1.09898190014064,ScrollDown,정답,1288.48907910008,1288.48907910008,1288.98937620036,1289.49631910026,NaN,,,,NaN,NaN,NaN,,NaN,NaN,NaN,NaN,NaN,NaN,NaN,NaN+0i,NaN+0i,NaN,NaN,NaN,NaN,11,64,남자,yes,yes,yes,yes,no,2023-08-01_10h31.47.839,Main,2022.2.4,60.1405002002043
28,나를 보내줘,6,Orange,A,0,0,ScrollUp,ScrollDown,Orange.png,3,NonTarget,NonTarget,,,NaN,,,NaN,NaN,NaN,NaN,NaN,NaN,NaN,NaN,NaN,NaN,NaN,NaN,0,0,0,0,NaN,NaN,NaN,NaN,NaN,NaN,NaN,NaN,0,0,0,0,NaN,NaN,NaN,NaN,2,0,2,0,0,27,27,27,NaN,NaN,NaN,NaN,NaN,NaN,NaN,NaN,NaN,NaN,NaN,NaN,NaN,NaN,NaN,NaN,NaN,NaN,NaN,NaN,NaN,"",NaN,NaN,NaN,NaN,NaN,NaN,NaN,NaN,NaN,NaN,NaN,,,NaN,NaN,NaN,NaN,1289.49631910026,1289.49631910026,1289.49631910026,1289.49631910026,1289.49631910026,1.66049382716049,1.84964410029352,ScrollUp,정답,1291.35581440013,1291.35581440013,1291.85585430032,1292.36735130008,NaN,,,,NaN,NaN,NaN,,NaN,NaN,NaN,NaN,NaN,NaN,NaN,NaN+0i,NaN+0i,NaN,NaN,NaN,NaN,11,64,남자,yes,yes,yes,yes,no,2023-08-01_10h31.47.839,Main,2022.2.4,60.1405002002043
29,넌 엉뚱스러워,3,Orange,A,4.16666666666667,4.13333333333333,ScrollDown,ScrollUp,Orange.png,3,Neutral,Neutral,,,NaN,,,NaN,NaN,NaN,NaN,NaN,NaN,NaN,NaN,NaN,NaN,NaN,NaN,0,0,0,0,NaN,NaN,NaN,NaN,NaN,NaN,NaN,NaN,0,0,0,0,NaN,NaN,NaN,NaN,2,0,2,0,0,28,28,28,NaN,NaN,NaN,NaN,NaN,NaN,NaN,NaN,NaN,NaN,NaN,NaN,NaN,NaN,NaN,NaN,NaN,NaN,NaN,NaN,NaN,"",NaN,NaN,NaN,NaN,NaN,NaN,NaN,NaN,NaN,NaN,NaN,,,NaN,NaN,NaN,NaN,1292.36735130008,1292.36735130008,1292.36735130008,1292.36735130008,1292.36735130008,1.19444444444444,1.18420659983531,ScrollDown,정답,1293.55564450007,1293.55564450007,1294.05579200014,1294.56138570001,NaN,,,,NaN,NaN,NaN,,NaN,NaN,NaN,NaN,NaN,NaN,NaN,NaN+0i,NaN+0i,NaN,NaN,NaN,NaN,11,64,남자,yes,yes,yes,yes,no,2023-08-01_10h31.47.839,Main,2022.2.4,60.1405002002043
30,넌 무지해,4,Green,B,2.54166666666667,3.06666666666667,ScrollUp,ScrollDown,Green.png,3,Negative,Congruent,,,NaN,,,NaN,NaN,NaN,NaN,NaN,NaN,NaN,NaN,NaN,NaN,NaN,NaN,0,0,0,0,NaN,NaN,NaN,NaN,NaN,NaN,NaN,NaN,0,0,0,0,NaN,NaN,NaN,NaN,2,0,2,0,0,29,29,29,NaN,NaN,NaN,NaN,NaN,NaN,NaN,NaN,NaN,NaN,NaN,NaN,NaN,NaN,NaN,NaN,NaN,NaN,NaN,NaN,NaN,"",NaN,NaN,NaN,NaN,NaN,NaN,NaN,NaN,NaN,NaN,NaN,,,NaN,NaN,NaN,NaN,1294.56138570001,1294.56138570001,1294.56138570001,1294.56138570001,1294.56138570001,1.93672839506173,1.36624260013923,ScrollUp,정답,1295.93894160027,1295.93894160027,1296.43956640037,1296.9484996004,NaN,,,,NaN,NaN,NaN,,NaN,NaN,NaN,NaN,NaN,NaN,NaN,NaN+0i,NaN+0i,NaN,NaN,NaN,NaN,11,64,남자,yes,yes,yes,yes,no,2023-08-01_10h31.47.839,Main,2022.2.4,60.1405002002043
31,넌 음울해,5,Green,B,2.25,2.23333333333333,ScrollUp,ScrollDown,Green.png,3,Negative,Congruent,,,NaN,,,NaN,NaN,NaN,NaN,NaN,NaN,NaN,NaN,NaN,NaN,NaN,NaN,0,0,0,0,NaN,NaN,NaN,NaN,NaN,NaN,NaN,NaN,0,0,0,0,NaN,NaN,NaN,NaN,2,0,2,0,0,30,30,30,NaN,NaN,NaN,NaN,NaN,NaN,NaN,NaN,NaN,NaN,NaN,NaN,NaN,NaN,NaN,NaN,NaN,NaN,NaN,NaN,NaN,"",NaN,NaN,NaN,NaN,NaN,NaN,NaN,NaN,NaN,NaN,NaN,,,NaN,NaN,NaN,NaN,1296.9484996004,1296.9484996004,1296.9484996004,1296.9484996004,1296.9484996004,1.69598765432099,1.51535789994523,ScrollUp,정답,1298.47273480007,1298.47273480007,1298.97275010031,1299.48376570037,NaN,,,,NaN,NaN,NaN,,NaN,NaN,NaN,NaN,NaN,NaN,NaN,NaN+0i,NaN+0i,NaN,NaN,NaN,NaN,11,64,남자,yes,yes,yes,yes,no,2023-08-01_10h31.47.839,Main,2022.2.4,60.1405002002043
32,넌 냉소적이야,5,Orange,A,2.91666666666667,2.4,ScrollDown,ScrollUp,Orange.png,3,Negative,Incongruent,,,NaN,,,NaN,NaN,NaN,NaN,NaN,NaN,NaN,NaN,NaN,NaN,NaN,NaN,0,0,0,0,NaN,NaN,NaN,NaN,NaN,NaN,NaN,NaN,0,0,0,0,NaN,NaN,NaN,NaN,2,0,2,0,0,31,31,31,NaN,NaN,NaN,NaN,NaN,NaN,NaN,NaN,NaN,NaN,NaN,NaN,NaN,NaN,NaN,NaN,NaN,NaN,NaN,NaN,NaN,"",NaN,NaN,NaN,NaN,NaN,NaN,NaN,NaN,NaN,NaN,NaN,,,NaN,NaN,NaN,NaN,1299.48376570037,1299.48376570037,1299.48376570037,1299.48376570037,1299.48376570037,1.05401234567901,1.21610260009766,ScrollDown,정답,1300.70565040037,1300.70565040037,1301.20612010034,1301.71515930025,NaN,,,,NaN,NaN,NaN,,NaN,NaN,NaN,NaN,NaN,NaN,NaN,NaN+0i,NaN+0i,NaN,NaN,NaN,NaN,11,64,남자,yes,yes,yes,yes,no,2023-08-01_10h31.47.839,Main,2022.2.4,60.1405002002043
33,나를 데려가줘,6,Green,B,0,0,ScrollDown,ScrollUp,Green.png,3,NonTarget,NonTarget,,,NaN,,,NaN,NaN,NaN,NaN,NaN,NaN,NaN,NaN,NaN,NaN,NaN,NaN,0,0,0,0,NaN,NaN,NaN,NaN,NaN,NaN,NaN,NaN,0,0,0,0,NaN,NaN,NaN,NaN,2,0,2,0,0,32,32,32,NaN,NaN,NaN,NaN,NaN,NaN,NaN,NaN,NaN,NaN,NaN,NaN,NaN,NaN,NaN,NaN,NaN,NaN,NaN,NaN,NaN,"",NaN,NaN,NaN,NaN,NaN,NaN,NaN,NaN,NaN,NaN,NaN,,,NaN,NaN,NaN,NaN,1301.71515930025,1301.71515930025,1301.71515930025,1301.71515930025,1301.71515930025,1.22993827160494,1.94930050009862,ScrollDown,정답,1303.6727268002,1303.6727268002,1304.1734627001,1304.68395640003,NaN,,,,NaN,NaN,NaN,,NaN,NaN,NaN,NaN,NaN,NaN,NaN,NaN+0i,NaN+0i,NaN,NaN,NaN,NaN,11,64,남자,yes,yes,yes,yes,no,2023-08-01_10h31.47.839,Main,2022.2.4,60.1405002002043
34,넌 쾌활해,1,Orange,A,5.54166666666667,5.73333333333333,ScrollDown,ScrollUp,Orange.png,3,Positive,Congruent,,,NaN,,,NaN,NaN,NaN,NaN,NaN,NaN,NaN,NaN,NaN,NaN,NaN,NaN,0,0,0,0,NaN,NaN,NaN,NaN,NaN,NaN,NaN,NaN,0,0,0,0,NaN,NaN,NaN,NaN,2,0,2,0,0,33,33,33,NaN,NaN,NaN,NaN,NaN,NaN,NaN,NaN,NaN,NaN,NaN,NaN,NaN,NaN,NaN,NaN,NaN,NaN,NaN,NaN,NaN,"",NaN,NaN,NaN,NaN,NaN,NaN,NaN,NaN,NaN,NaN,NaN,,,NaN,NaN,NaN,NaN,1304.68395640003,1304.68395640003,1304.68395640003,1304.68395640003,1304.68395640003,1.21296296296296,2.18382490007207,ScrollDown,정답,1306.87238570023,1306.87238570023,1307.37322420022,1307.87823730009,NaN,,,,NaN,NaN,NaN,,NaN,NaN,NaN,NaN,NaN,NaN,NaN,NaN+0i,NaN+0i,NaN,NaN,NaN,NaN,11,64,남자,yes,yes,yes,yes,no,2023-08-01_10h31.47.839,Main,2022.2.4,60.1405002002043
35,나를 보내줘,6,Orange,A,0,0,ScrollUp,ScrollDown,Orange.png,3,NonTarget,NonTarget,,,NaN,,,NaN,NaN,NaN,NaN,NaN,NaN,NaN,NaN,NaN,NaN,NaN,NaN,0,0,0,0,NaN,NaN,NaN,NaN,NaN,NaN,NaN,NaN,0,0,0,0,NaN,NaN,NaN,NaN,2,0,2,0,0,34,34,34,NaN,NaN,NaN,NaN,NaN,NaN,NaN,NaN,NaN,NaN,NaN,NaN,NaN,NaN,NaN,NaN,NaN,NaN,NaN,NaN,NaN,"",NaN,NaN,NaN,NaN,NaN,NaN,NaN,NaN,NaN,NaN,NaN,,,NaN,NaN,NaN,NaN,1307.87823730009,1307.87823730009,1307.87823730009,1307.87823730009,1307.87823730009,1.88425925925926,1.63416370004416,ScrollUp,정답,1309.52273590025,1309.52273590025,1310.0227299002,1310.53059830004,NaN,,,,NaN,NaN,NaN,,NaN,NaN,NaN,NaN,NaN,NaN,NaN,NaN+0i,NaN+0i,NaN,NaN,NaN,NaN,11,64,남자,yes,yes,yes,yes,no,2023-08-01_10h31.47.839,Main,2022.2.4,60.1405002002043
36,넌 명랑해,1,Green,B,5.73913043478261,5.66666666666667,ScrollUp,ScrollDown,Green.png,3,Positive,Incongruent,,,NaN,,,NaN,NaN,NaN,NaN,NaN,NaN,NaN,NaN,NaN,NaN,NaN,NaN,0,0,0,0,NaN,NaN,NaN,NaN,NaN,NaN,NaN,NaN,0,0,0,0,NaN,NaN,NaN,NaN,2,0,2,0,0,35,35,35,NaN,NaN,NaN,NaN,NaN,NaN,NaN,NaN,NaN,NaN,NaN,NaN,NaN,NaN,NaN,NaN,NaN,NaN,NaN,NaN,NaN,"",NaN,NaN,NaN,NaN,NaN,NaN,NaN,NaN,NaN,NaN,NaN,,,NaN,NaN,NaN,NaN,1310.53059830004,1310.53059830004,1310.53059830004,1310.53059830004,1310.53059830004,1.91203703703704,1.38291219994426,ScrollUp,정답,1311.92249510018,1311.92249510018,1312.42274200032,1312.92867560033,NaN,,,,NaN,NaN,NaN,,NaN,NaN,NaN,NaN,NaN,NaN,NaN,NaN+0i,NaN+0i,NaN,NaN,NaN,NaN,11,64,남자,yes,yes,yes,yes,no,2023-08-01_10h31.47.839,Main,2022.2.4,60.1405002002043
37,넌 멍해,4,Orange,A,2.83333333333333,3.4,ScrollDown,ScrollUp,Orange.png,3,Negative,Incongruent,,,NaN,,,NaN,NaN,NaN,NaN,NaN,NaN,NaN,NaN,NaN,NaN,NaN,NaN,0,0,0,0,NaN,NaN,NaN,NaN,NaN,NaN,NaN,NaN,0,0,0,0,NaN,NaN,NaN,NaN,2,0,2,0,0,36,36,36,NaN,NaN,NaN,NaN,NaN,NaN,NaN,NaN,NaN,NaN,NaN,NaN,NaN,NaN,NaN,NaN,NaN,NaN,NaN,NaN,NaN,"",NaN,NaN,NaN,NaN,NaN,NaN,NaN,NaN,NaN,NaN,NaN,,,NaN,NaN,NaN,NaN,1312.92867560033,1312.92867560033,1312.92867560033,1312.92867560033,1312.92867560033,1.17592592592593,1.40060350019485,ScrollDown,정답,1314.33897830034,1314.33897830034,1314.83915170003,1315.34872790007,NaN,,,,NaN,NaN,NaN,,NaN,NaN,NaN,NaN,NaN,NaN,NaN,NaN+0i,NaN+0i,NaN,NaN,NaN,NaN,11,64,남자,yes,yes,yes,yes,no,2023-08-01_10h31.47.839,Main,2022.2.4,60.1405002002043
38,나를 데려가줘,6,Green,B,0,0,ScrollDown,ScrollUp,Green.png,3,NonTarget,NonTarget,,,NaN,,,NaN,NaN,NaN,NaN,NaN,NaN,NaN,NaN,NaN,NaN,NaN,NaN,0,0,0,0,NaN,NaN,NaN,NaN,NaN,NaN,NaN,NaN,0,0,0,0,NaN,NaN,NaN,NaN,2,0,2,0,0,37,37,37,NaN,NaN,NaN,NaN,NaN,NaN,NaN,NaN,NaN,NaN,NaN,NaN,NaN,NaN,NaN,NaN,NaN,NaN,NaN,NaN,NaN,"",NaN,NaN,NaN,NaN,NaN,NaN,NaN,NaN,NaN,NaN,NaN,,,NaN,NaN,NaN,NaN,1315.34872790007,1315.34872790007,1315.34872790007,1315.34872790007,1315.34872790007,1.25771604938272,1.64851949969307,ScrollDown,정답,1317.00556199998,1317.00556199998,1317.50586260017,1318.01350930007,NaN,,,,NaN,NaN,NaN,,NaN,NaN,NaN,NaN,NaN,NaN,NaN,NaN+0i,NaN+0i,NaN,NaN,NaN,NaN,11,64,남자,yes,yes,yes,yes,no,2023-08-01_10h31.47.839,Main,2022.2.4,60.1405002002043
39,넌 현명해,2,Orange,A,6.54166666666667,4.53333333333333,ScrollDown,ScrollUp,Orange.png,3,Positive,Congruent,,,NaN,,,NaN,NaN,NaN,NaN,NaN,NaN,NaN,NaN,NaN,NaN,NaN,NaN,0,0,0,0,NaN,NaN,NaN,NaN,NaN,NaN,NaN,NaN,0,0,0,0,NaN,NaN,NaN,NaN,2,0,2,0,0,38,38,38,NaN,NaN,NaN,NaN,NaN,NaN,NaN,NaN,NaN,NaN,NaN,NaN,NaN,NaN,NaN,NaN,NaN,NaN,NaN,NaN,NaN,"",NaN,NaN,NaN,NaN,NaN,NaN,NaN,NaN,NaN,NaN,NaN,,,NaN,NaN,NaN,NaN,1318.01350930007,1318.01350930007,1318.01350930007,1318.01350930007,1318.01350930007,1.27623456790123,1.41519459988922,ScrollDown,정답,1319.43962150021,1319.43962150021,1319.93909200002,1320.45002260013,NaN,,,,NaN,NaN,NaN,,NaN,NaN,NaN,NaN,NaN,NaN,NaN,NaN+0i,NaN+0i,NaN,NaN,NaN,NaN,11,64,남자,yes,yes,yes,yes,no,2023-08-01_10h31.47.839,Main,2022.2.4,60.1405002002043
40,넌 수줍어,3,Green,B,3.54166666666667,4.36666666666667,ScrollUp,ScrollDown,Green.png,3,Neutral,Neutral,,,NaN,,,NaN,NaN,NaN,NaN,NaN,NaN,NaN,NaN,NaN,NaN,NaN,NaN,0,0,0,0,NaN,NaN,NaN,NaN,NaN,NaN,NaN,NaN,0,0,0,0,NaN,NaN,NaN,NaN,2,0,2,0,0,39,39,39,NaN,NaN,NaN,NaN,NaN,NaN,NaN,NaN,NaN,NaN,NaN,NaN,NaN,NaN,NaN,NaN,NaN,NaN,NaN,NaN,NaN,"",NaN,NaN,NaN,NaN,NaN,NaN,NaN,NaN,NaN,NaN,NaN,,,NaN,NaN,NaN,NaN,1320.45002260013,1320.45002260013,1320.45002260013,1320.45002260013,1320.45002260013,1.89969135802469,1.46640220005065,ScrollUp,정답,1321.92258220026,1321.92258220026,1322.42303310009,1322.92604569998,NaN,,,,NaN,NaN,NaN,,NaN,NaN,NaN,NaN,NaN,NaN,NaN,NaN+0i,NaN+0i,NaN,NaN,NaN,NaN,11,64,남자,yes,yes,yes,yes,no,2023-08-01_10h31.47.839,Main,2022.2.4,60.1405002002043
41,나를 데려가줘,6,Green,B,0,0,ScrollDown,ScrollUp,Green.png,3,NonTarget,NonTarget,,,NaN,,,NaN,NaN,NaN,NaN,NaN,NaN,NaN,NaN,NaN,NaN,NaN,NaN,0,0,0,0,NaN,NaN,NaN,NaN,NaN,NaN,NaN,NaN,0,0,0,0,NaN,NaN,NaN,NaN,2,0,2,0,0,40,40,40,NaN,NaN,NaN,NaN,NaN,NaN,NaN,NaN,NaN,NaN,NaN,NaN,NaN,NaN,NaN,NaN,NaN,NaN,NaN,NaN,NaN,"",NaN,NaN,NaN,NaN,NaN,NaN,NaN,NaN,NaN,NaN,NaN,,,NaN,NaN,NaN,NaN,1322.92604569998,1322.92604569998,1322.92604569998,1322.92604569998,1322.92604569998,1.15586419753086,3.2855266998522,ScrollDown,정답,1326.22267389996,1326.22267389996,1326.72273400007,1327.22838170035,NaN,,,,NaN,NaN,NaN,,NaN,NaN,NaN,NaN,NaN,NaN,NaN,NaN+0i,NaN+0i,NaN,NaN,NaN,NaN,11,64,남자,yes,yes,yes,yes,no,2023-08-01_10h31.47.839,Main,2022.2.4,60.1405002002043
