TrialNum,Word,WordCategory,FishType,WordList,WordValence,WordReputation,CorrectResp,IncorrectResp,FishTypeFile,Round,WordType,Condition,target,distractor,set,ans1,ans2,weather_thisRepN,weather_thisTrialN,weather_thisN,weather_thisIndex,wth_repeat_prac_thisRepN,wth_repeat_prac_thisTrialN,wth_repeat_prac_thisN,wth_repeat_prac_thisIndex,wth_trials_thisRepN,wth_trials_thisTrialN,wth_trials_thisN,wth_trials_thisIndex,total_experiment_thisRepN,total_experiment_thisTrialN,total_experiment_thisN,total_experiment_thisIndex,boat_thisRepN,boat_thisTrialN,boat_thisN,boat_thisIndex,para_thisRepN,para_thisTrialN,para_thisN,para_thisIndex,fish_thisRepN,fish_thisTrialN,fish_thisN,fish_thisIndex,fis_temp_thisRepN,fis_temp_thisTrialN,fis_temp_thisN,fis_temp_thisIndex,fis_round_thisRepN,fis_round_thisTrialN,fis_round_thisN,fis_round_thisIndex,fis_trials_thisRepN,fis_trials_thisTrialN,fis_trials_thisN,fis_trials_thisIndex,fis_main_break_thisRepN,fis_main_break_thisTrialN,fis_main_break_thisN,fis_main_break_thisIndex,flanker_prac_loop_thisRepN,flanker_prac_loop_thisTrialN,flanker_prac_loop_thisN,flanker_prac_loop_thisIndex,flanker_main_loop_thisRepN,flanker_main_loop_thisTrialN,flanker_main_loop_thisN,flanker_main_loop_thisIndex,para_prac_loop_thisRepN,para_prac_loop_thisTrialN,para_prac_loop_thisN,para_prac_loop_thisIndex,para_main_loop_thisRepN,para_main_loop_thisTrialN,para_main_loop_thisN,para_main_loop_thisIndex,stimulus_interval,wth_resp,wth_rt,wth_valence_rating_2_response,wth_self_rating_2_response,wth_valence_rating_response,wth_self_rating_response,fis_slider_2_started,Fish_2_started,fis_WordBox_2_started,fis_Words_2_started,fis_slider_2_response,fis_slider_2_rt,Response_2,Feedback_2,fis_BackGround_Feedback_2_started,fis_Feedbacks_2_started,fis_Feedbacks_2_stopped,fis_BackGround_Feedback_2_stopped,fis_slider_started,fis_BackGround_started,Fish_started,fis_WordBox_started,fis_Words_started,fis_slider_response,fis_slider_rt,Response,Feedback,fis_BackGround_Feedback_started,fis_Feedbacks_started,fis_Feedbacks_stopped,fis_BackGround_Feedback_stopped,fis_roundN,main_prac,fl_cold,fl_colt,fl_set,fl_dcond,fl_tcond,targ_started,fl_ans,fl_res,fl_corr,fl_rt,fl_rt_2,fl_key_resp_keys,st_ans,st_res,st_corr,st_rt,st_rt2,st2_resp_keys,st2_resp_corr,id_,x___,x__,weather,boat,parachute,fish,test_mode,date,expName,psychopyVersion,frameRate
NaN,,NaN,,,NaN,NaN,,,,NaN,,,,,NaN,,,0,0,0,0,0,0,0,0,NaN,NaN,NaN,NaN,NaN,NaN,NaN,NaN,NaN,NaN,NaN,NaN,NaN,NaN,NaN,NaN,NaN,NaN,NaN,NaN,NaN,NaN,NaN,NaN,NaN,NaN,NaN,NaN,NaN,NaN,NaN,NaN,NaN,NaN,NaN,NaN,NaN,NaN,NaN,NaN,NaN,NaN,NaN,NaN,NaN,NaN,NaN,NaN,NaN,NaN,NaN,NaN,30,여행,143.978495400399,1,0.823045267489712,NaN,NaN,NaN,NaN,NaN,NaN,NaN,NaN,,,NaN,NaN,NaN,NaN,NaN,NaN,NaN,NaN,NaN,NaN,NaN,,,NaN,NaN,NaN,NaN,NaN,,NaN,NaN,NaN,,,NaN,,,NaN,NaN,NaN,,NaN,NaN,NaN,NaN,NaN,NaN,NaN,34,67,여자,yes,yes,yes,yes,no,2023-06-07_16h14.14.162,Main,2022.2.4,29.9992740888713
NaN,,NaN,,,NaN,NaN,,,,NaN,,,,,NaN,,,0,0,0,0,NaN,NaN,NaN,NaN,0,0,0,0,NaN,NaN,NaN,NaN,NaN,NaN,NaN,NaN,NaN,NaN,NaN,NaN,NaN,NaN,NaN,NaN,NaN,NaN,NaN,NaN,NaN,NaN,NaN,NaN,NaN,NaN,NaN,NaN,NaN,NaN,NaN,NaN,NaN,NaN,NaN,NaN,NaN,NaN,NaN,NaN,NaN,NaN,NaN,NaN,NaN,NaN,NaN,NaN,30,자유,31.7786865001544,NaN,NaN,0.835390946502057,0.851851851851852,NaN,NaN,NaN,NaN,NaN,NaN,,,NaN,NaN,NaN,NaN,NaN,NaN,NaN,NaN,NaN,NaN,NaN,,,NaN,NaN,NaN,NaN,NaN,,NaN,NaN,NaN,,,NaN,,,NaN,NaN,NaN,,NaN,NaN,NaN,NaN,NaN,NaN,NaN,34,67,여자,yes,yes,yes,yes,no,2023-06-07_16h14.14.162,Main,2022.2.4,29.9992740888713
NaN,,NaN,,,NaN,NaN,,,,NaN,,,,,NaN,,,0,0,0,0,NaN,NaN,NaN,NaN,1,0,1,0,NaN,NaN,NaN,NaN,NaN,NaN,NaN,NaN,NaN,NaN,NaN,NaN,NaN,NaN,NaN,NaN,NaN,NaN,NaN,NaN,NaN,NaN,NaN,NaN,NaN,NaN,NaN,NaN,NaN,NaN,NaN,NaN,NaN,NaN,NaN,NaN,NaN,NaN,NaN,NaN,NaN,NaN,NaN,NaN,NaN,NaN,NaN,NaN,30,하늘,10.9484322993085,NaN,NaN,0.855967078189301,0.880658436213992,NaN,NaN,NaN,NaN,NaN,NaN,,,NaN,NaN,NaN,NaN,NaN,NaN,NaN,NaN,NaN,NaN,NaN,,,NaN,NaN,NaN,NaN,NaN,,NaN,NaN,NaN,,,NaN,,,NaN,NaN,NaN,,NaN,NaN,NaN,NaN,NaN,NaN,NaN,34,67,여자,yes,yes,yes,yes,no,2023-06-07_16h14.14.162,Main,2022.2.4,29.9992740888713
NaN,,NaN,,,NaN,NaN,,,,NaN,,,,,NaN,,,0,0,0,0,NaN,NaN,NaN,NaN,2,0,2,0,NaN,NaN,NaN,NaN,NaN,NaN,NaN,NaN,NaN,NaN,NaN,NaN,NaN,NaN,NaN,NaN,NaN,NaN,NaN,NaN,NaN,NaN,NaN,NaN,NaN,NaN,NaN,NaN,NaN,NaN,NaN,NaN,NaN,NaN,NaN,NaN,NaN,NaN,NaN,NaN,NaN,NaN,NaN,NaN,NaN,NaN,NaN,NaN,30,가족이랑 여행가고 싶다,15.7149680005386,NaN,NaN,1,0.860082304526749,NaN,NaN,NaN,NaN,NaN,NaN,,,NaN,NaN,NaN,NaN,NaN,NaN,NaN,NaN,NaN,NaN,NaN,,,NaN,NaN,NaN,NaN,NaN,,NaN,NaN,NaN,,,NaN,,,NaN,NaN,NaN,,NaN,NaN,NaN,NaN,NaN,NaN,NaN,34,67,여자,yes,yes,yes,yes,no,2023-06-07_16h14.14.162,Main,2022.2.4,29.9992740888713
NaN,,NaN,,,NaN,NaN,,,,NaN,,,,,NaN,,,0,0,0,0,NaN,NaN,NaN,NaN,3,0,3,0,NaN,NaN,NaN,NaN,NaN,NaN,NaN,NaN,NaN,NaN,NaN,NaN,NaN,NaN,NaN,NaN,NaN,NaN,NaN,NaN,NaN,NaN,NaN,NaN,NaN,NaN,NaN,NaN,NaN,NaN,NaN,NaN,NaN,NaN,NaN,NaN,NaN,NaN,NaN,NaN,NaN,NaN,NaN,NaN,NaN,NaN,NaN,NaN,30,친구들이랑 만나서 이야기하고 싶다,20.9223630996421,NaN,NaN,0.934156378600823,0.847736625514403,NaN,NaN,NaN,NaN,NaN,NaN,,,NaN,NaN,NaN,NaN,NaN,NaN,NaN,NaN,NaN,NaN,NaN,,,NaN,NaN,NaN,NaN,NaN,,NaN,NaN,NaN,,,NaN,,,NaN,NaN,NaN,,NaN,NaN,NaN,NaN,NaN,NaN,NaN,34,67,여자,yes,yes,yes,yes,no,2023-06-07_16h14.14.162,Main,2022.2.4,29.9992740888713
1,넌 교활해,5,Orange,B,2.33333333333333,2.13333333333333,ScrollUp,ScrollDown,Orange.png,NaN,,,,,NaN,,,NaN,NaN,NaN,NaN,NaN,NaN,NaN,NaN,NaN,NaN,NaN,NaN,0,0,0,0,NaN,NaN,NaN,NaN,NaN,NaN,NaN,NaN,0,0,0,0,0,0,0,0,NaN,NaN,NaN,NaN,NaN,NaN,NaN,NaN,NaN,NaN,NaN,NaN,NaN,NaN,NaN,NaN,NaN,NaN,NaN,NaN,NaN,NaN,NaN,NaN,NaN,NaN,NaN,NaN,NaN,,NaN,NaN,NaN,NaN,NaN,711.591440200806,711.591440200806,711.591440200806,711.591440200806,2,22.5252133002505,ScrollUp,정답,734.148502800614,734.148502800614,734.649015400559,735.158638200723,NaN,NaN,NaN,NaN,NaN,NaN,NaN,,,NaN,NaN,NaN,NaN,NaN,,NaN,NaN,NaN,,,NaN,,,NaN,NaN,NaN,,NaN,NaN,NaN,NaN,NaN,NaN,NaN,34,67,여자,yes,yes,yes,yes,no,2023-06-07_16h14.14.162,Main,2022.2.4,29.9992740888713
2,넌 슬기로워,2,Green,A,6.16666666666667,4.1,ScrollDown,ScrollUp,Green.png,NaN,,,,,NaN,,,NaN,NaN,NaN,NaN,NaN,NaN,NaN,NaN,NaN,NaN,NaN,NaN,0,0,0,0,NaN,NaN,NaN,NaN,NaN,NaN,NaN,NaN,0,0,0,0,0,1,1,1,NaN,NaN,NaN,NaN,NaN,NaN,NaN,NaN,NaN,NaN,NaN,NaN,NaN,NaN,NaN,NaN,NaN,NaN,NaN,NaN,NaN,NaN,NaN,NaN,NaN,NaN,NaN,NaN,NaN,,NaN,NaN,NaN,NaN,NaN,735.158638200723,735.158638200723,735.158638200723,735.158638200723,1,3.66629730071872,ScrollDown,정답,738.848538300022,738.848538300022,739.348551900126,739.860623800196,NaN,NaN,NaN,NaN,NaN,NaN,NaN,,,NaN,NaN,NaN,NaN,NaN,,NaN,NaN,NaN,,,NaN,,,NaN,NaN,NaN,,NaN,NaN,NaN,NaN,NaN,NaN,NaN,34,67,여자,yes,yes,yes,yes,no,2023-06-07_16h14.14.162,Main,2022.2.4,29.9992740888713
3,나를 보내줘,6,Green,A,0,0,ScrollUp,ScrollDown,Green.png,NaN,,,,,NaN,,,NaN,NaN,NaN,NaN,NaN,NaN,NaN,NaN,NaN,NaN,NaN,NaN,0,0,0,0,NaN,NaN,NaN,NaN,NaN,NaN,NaN,NaN,0,0,0,0,0,2,2,2,NaN,NaN,NaN,NaN,NaN,NaN,NaN,NaN,NaN,NaN,NaN,NaN,NaN,NaN,NaN,NaN,NaN,NaN,NaN,NaN,NaN,NaN,NaN,NaN,NaN,NaN,NaN,NaN,NaN,,NaN,NaN,NaN,NaN,NaN,739.860623800196,739.860623800196,739.860623800196,739.860623800196,2,21.898450399749,ScrollUp,정답,761.781919999979,761.781919999979,762.281916400418,762.788075500168,NaN,NaN,NaN,NaN,NaN,NaN,NaN,,,NaN,NaN,NaN,NaN,NaN,,NaN,NaN,NaN,,,NaN,,,NaN,NaN,NaN,,NaN,NaN,NaN,NaN,NaN,NaN,NaN,34,67,여자,yes,yes,yes,yes,no,2023-06-07_16h14.14.162,Main,2022.2.4,29.9992740888713
4,나를 데려가줘,6,Orange,B,0,0,ScrollDown,ScrollUp,Orange.png,NaN,,,,,NaN,,,NaN,NaN,NaN,NaN,NaN,NaN,NaN,NaN,NaN,NaN,NaN,NaN,0,0,0,0,NaN,NaN,NaN,NaN,NaN,NaN,NaN,NaN,0,0,0,0,0,3,3,3,NaN,NaN,NaN,NaN,NaN,NaN,NaN,NaN,NaN,NaN,NaN,NaN,NaN,NaN,NaN,NaN,NaN,NaN,NaN,NaN,NaN,NaN,NaN,NaN,NaN,NaN,NaN,NaN,NaN,,NaN,NaN,NaN,NaN,NaN,762.788075500168,762.788075500168,762.788075500168,762.788075500168,1,4.90030309930444,ScrollDown,정답,767.715367200784,767.715367200784,768.215644700453,768.715649100021,NaN,NaN,NaN,NaN,NaN,NaN,NaN,,,NaN,NaN,NaN,NaN,NaN,,NaN,NaN,NaN,,,NaN,,,NaN,NaN,NaN,,NaN,NaN,NaN,NaN,NaN,NaN,NaN,34,67,여자,yes,yes,yes,yes,no,2023-06-07_16h14.14.162,Main,2022.2.4,29.9992740888713
1,넌 교활해,5,Orange,B,2.33333333333333,2.13333333333333,ScrollUp,ScrollDown,Orange.png,NaN,,,,,NaN,,,NaN,NaN,NaN,NaN,NaN,NaN,NaN,NaN,NaN,NaN,NaN,NaN,0,0,0,0,NaN,NaN,NaN,NaN,NaN,NaN,NaN,NaN,0,0,0,0,1,0,4,0,NaN,NaN,NaN,NaN,NaN,NaN,NaN,NaN,NaN,NaN,NaN,NaN,NaN,NaN,NaN,NaN,NaN,NaN,NaN,NaN,NaN,NaN,NaN,NaN,NaN,NaN,NaN,NaN,NaN,,NaN,NaN,NaN,NaN,NaN,768.715649100021,768.715649100021,768.715649100021,768.715649100021,2,14.2328246003017,ScrollUp,정답,782.982037500478,782.982037500478,783.48176000081,783.987230600789,NaN,NaN,NaN,NaN,NaN,NaN,NaN,,,NaN,NaN,NaN,NaN,NaN,,NaN,NaN,NaN,,,NaN,,,NaN,NaN,NaN,,NaN,NaN,NaN,NaN,NaN,NaN,NaN,34,67,여자,yes,yes,yes,yes,no,2023-06-07_16h14.14.162,Main,2022.2.4,29.9992740888713
2,넌 슬기로워,2,Green,A,6.16666666666667,4.1,ScrollDown,ScrollUp,Green.png,NaN,,,,,NaN,,,NaN,NaN,NaN,NaN,NaN,NaN,NaN,NaN,NaN,NaN,NaN,NaN,0,0,0,0,NaN,NaN,NaN,NaN,NaN,NaN,NaN,NaN,0,0,0,0,1,1,5,1,NaN,NaN,NaN,NaN,NaN,NaN,NaN,NaN,NaN,NaN,NaN,NaN,NaN,NaN,NaN,NaN,NaN,NaN,NaN,NaN,NaN,NaN,NaN,NaN,NaN,NaN,NaN,NaN,NaN,,NaN,NaN,NaN,NaN,NaN,783.987230600789,783.987230600789,783.987230600789,783.987230600789,1,3.03317369986326,ScrollDown,정답,787.04860700015,787.04860700015,787.548603100702,788.052852800116,NaN,NaN,NaN,NaN,NaN,NaN,NaN,,,NaN,NaN,NaN,NaN,NaN,,NaN,NaN,NaN,,,NaN,,,NaN,NaN,NaN,,NaN,NaN,NaN,NaN,NaN,NaN,NaN,34,67,여자,yes,yes,yes,yes,no,2023-06-07_16h14.14.162,Main,2022.2.4,29.9992740888713
3,나를 보내줘,6,Green,A,0,0,ScrollUp,ScrollDown,Green.png,NaN,,,,,NaN,,,NaN,NaN,NaN,NaN,NaN,NaN,NaN,NaN,NaN,NaN,NaN,NaN,0,0,0,0,NaN,NaN,NaN,NaN,NaN,NaN,NaN,NaN,0,0,0,0,1,2,6,2,NaN,NaN,NaN,NaN,NaN,NaN,NaN,NaN,NaN,NaN,NaN,NaN,NaN,NaN,NaN,NaN,NaN,NaN,NaN,NaN,NaN,NaN,NaN,NaN,NaN,NaN,NaN,NaN,NaN,,NaN,NaN,NaN,NaN,NaN,788.052852800116,788.052852800116,788.052852800116,788.052852800116,1,2.12937809992582,ScrollDown,오답,790.215252300724,790.215252300724,790.715390500613,791.223298800178,NaN,NaN,NaN,NaN,NaN,NaN,NaN,,,NaN,NaN,NaN,NaN,NaN,,NaN,NaN,NaN,,,NaN,,,NaN,NaN,NaN,,NaN,NaN,NaN,NaN,NaN,NaN,NaN,34,67,여자,yes,yes,yes,yes,no,2023-06-07_16h14.14.162,Main,2022.2.4,29.9992740888713
4,나를 데려가줘,6,Orange,B,0,0,ScrollDown,ScrollUp,Orange.png,NaN,,,,,NaN,,,NaN,NaN,NaN,NaN,NaN,NaN,NaN,NaN,NaN,NaN,NaN,NaN,0,0,0,0,NaN,NaN,NaN,NaN,NaN,NaN,NaN,NaN,0,0,0,0,1,3,7,3,NaN,NaN,NaN,NaN,NaN,NaN,NaN,NaN,NaN,NaN,NaN,NaN,NaN,NaN,NaN,NaN,NaN,NaN,NaN,NaN,NaN,NaN,NaN,NaN,NaN,NaN,NaN,NaN,NaN,,NaN,NaN,NaN,NaN,NaN,791.223298800178,791.223298800178,791.223298800178,791.223298800178,1,2.89955770038068,ScrollDown,정답,794.148622300476,794.148622300476,794.648605100811,795.148612600751,NaN,NaN,NaN,NaN,NaN,NaN,NaN,,,NaN,NaN,NaN,NaN,NaN,,NaN,NaN,NaN,,,NaN,,,NaN,NaN,NaN,,NaN,NaN,NaN,NaN,NaN,NaN,NaN,34,67,여자,yes,yes,yes,yes,no,2023-06-07_16h14.14.162,Main,2022.2.4,29.9992740888713
1,넌 교활해,5,Orange,B,2.33333333333333,2.13333333333333,ScrollUp,ScrollDown,Orange.png,NaN,,,,,NaN,,,NaN,NaN,NaN,NaN,NaN,NaN,NaN,NaN,NaN,NaN,NaN,NaN,0,0,0,0,NaN,NaN,NaN,NaN,NaN,NaN,NaN,NaN,0,0,0,0,2,0,8,0,NaN,NaN,NaN,NaN,NaN,NaN,NaN,NaN,NaN,NaN,NaN,NaN,NaN,NaN,NaN,NaN,NaN,NaN,NaN,NaN,NaN,NaN,NaN,NaN,NaN,NaN,NaN,NaN,NaN,,NaN,NaN,NaN,NaN,NaN,795.148612600751,795.148612600751,795.148612600751,795.148612600751,1.6358024691358,2.70009049959481,ScrollUp,정답,797.882055100054,797.882055100054,798.382379100658,798.888404200785,NaN,NaN,NaN,NaN,NaN,NaN,NaN,,,NaN,NaN,NaN,NaN,NaN,,NaN,NaN,NaN,,,NaN,,,NaN,NaN,NaN,,NaN,NaN,NaN,NaN,NaN,NaN,NaN,34,67,여자,yes,yes,yes,yes,no,2023-06-07_16h14.14.162,Main,2022.2.4,29.9992740888713
2,넌 슬기로워,2,Green,A,6.16666666666667,4.1,ScrollDown,ScrollUp,Green.png,NaN,,,,,NaN,,,NaN,NaN,NaN,NaN,NaN,NaN,NaN,NaN,NaN,NaN,NaN,NaN,0,0,0,0,NaN,NaN,NaN,NaN,NaN,NaN,NaN,NaN,0,0,0,0,2,1,9,1,NaN,NaN,NaN,NaN,NaN,NaN,NaN,NaN,NaN,NaN,NaN,NaN,NaN,NaN,NaN,NaN,NaN,NaN,NaN,NaN,NaN,NaN,NaN,NaN,NaN,NaN,NaN,NaN,NaN,,NaN,NaN,NaN,NaN,NaN,798.888404200785,798.888404200785,798.888404200785,798.888404200785,1,2.89907370042056,ScrollDown,정답,801.815270599909,801.815270599909,802.315199100412,802.815151800402,NaN,NaN,NaN,NaN,NaN,NaN,NaN,,,NaN,NaN,NaN,NaN,NaN,,NaN,NaN,NaN,,,NaN,,,NaN,NaN,NaN,,NaN,NaN,NaN,NaN,NaN,NaN,NaN,34,67,여자,yes,yes,yes,yes,no,2023-06-07_16h14.14.162,Main,2022.2.4,29.9992740888713
3,나를 보내줘,6,Green,A,0,0,ScrollUp,ScrollDown,Green.png,NaN,,,,,NaN,,,NaN,NaN,NaN,NaN,NaN,NaN,NaN,NaN,NaN,NaN,NaN,NaN,0,0,0,0,NaN,NaN,NaN,NaN,NaN,NaN,NaN,NaN,0,0,0,0,2,2,10,2,NaN,NaN,NaN,NaN,NaN,NaN,NaN,NaN,NaN,NaN,NaN,NaN,NaN,NaN,NaN,NaN,NaN,NaN,NaN,NaN,NaN,NaN,NaN,NaN,NaN,NaN,NaN,NaN,NaN,,NaN,NaN,NaN,NaN,NaN,802.815151800402,802.815151800402,802.815151800402,802.815151800402,1.69598765432099,1.93345720041543,ScrollUp,정답,804.781906000338,804.781906000338,805.281981500797,805.789294900373,NaN,NaN,NaN,NaN,NaN,NaN,NaN,,,NaN,NaN,NaN,NaN,NaN,,NaN,NaN,NaN,,,NaN,,,NaN,NaN,NaN,,NaN,NaN,NaN,NaN,NaN,NaN,NaN,34,67,여자,yes,yes,yes,yes,no,2023-06-07_16h14.14.162,Main,2022.2.4,29.9992740888713
4,나를 데려가줘,6,Orange,B,0,0,ScrollDown,ScrollUp,Orange.png,NaN,,,,,NaN,,,NaN,NaN,NaN,NaN,NaN,NaN,NaN,NaN,NaN,NaN,NaN,NaN,0,0,0,0,NaN,NaN,NaN,NaN,NaN,NaN,NaN,NaN,0,0,0,0,2,3,11,3,NaN,NaN,NaN,NaN,NaN,NaN,NaN,NaN,NaN,NaN,NaN,NaN,NaN,NaN,NaN,NaN,NaN,NaN,NaN,NaN,NaN,NaN,NaN,NaN,NaN,NaN,NaN,NaN,NaN,,NaN,NaN,NaN,NaN,NaN,805.789294900373,805.789294900373,805.789294900373,805.789294900373,1.03395061728395,1.56589090079069,ScrollDown,정답,807.381819699891,807.381819699891,807.882025100291,808.382521000691,NaN,NaN,NaN,NaN,NaN,NaN,NaN,,,NaN,NaN,NaN,NaN,NaN,,NaN,NaN,NaN,,,NaN,,,NaN,NaN,NaN,,NaN,NaN,NaN,NaN,NaN,NaN,NaN,34,67,여자,yes,yes,yes,yes,no,2023-06-07_16h14.14.162,Main,2022.2.4,29.9992740888713
1,넌 따뜻해,1,Orange,B,6.08333333333333,5.6,ScrollUp,ScrollDown,Orange.png,1,Positive,Incongruent,,,NaN,,,NaN,NaN,NaN,NaN,NaN,NaN,NaN,NaN,NaN,NaN,NaN,NaN,0,0,0,0,NaN,NaN,NaN,NaN,NaN,NaN,NaN,NaN,0,0,0,0,NaN,NaN,NaN,NaN,0,0,0,0,0,0,0,0,NaN,NaN,NaN,NaN,NaN,NaN,NaN,NaN,NaN,NaN,NaN,NaN,NaN,NaN,NaN,NaN,NaN,NaN,NaN,NaN,NaN,,NaN,NaN,NaN,NaN,NaN,NaN,NaN,NaN,NaN,NaN,NaN,,,NaN,NaN,NaN,NaN,819.126950700767,819.126950700767,819.126950700767,819.126950700767,819.126950700767,1.82716049382716,2.84002130012959,ScrollUp,정답,821.982371200807,821.982371200807,822.482468500733,822.992831200361,NaN,,NaN,NaN,NaN,,,NaN,,,NaN,NaN,NaN,,NaN,NaN,NaN,NaN,NaN,NaN,NaN,34,67,여자,yes,yes,yes,yes,no,2023-06-07_16h14.14.162,Main,2022.2.4,29.9992740888713
2,넌 기품있어,2,Orange,B,5.79166666666667,4.5,ScrollUp,ScrollDown,Orange.png,1,Positive,Incongruent,,,NaN,,,NaN,NaN,NaN,NaN,NaN,NaN,NaN,NaN,NaN,NaN,NaN,NaN,0,0,0,0,NaN,NaN,NaN,NaN,NaN,NaN,NaN,NaN,0,0,0,0,NaN,NaN,NaN,NaN,0,0,0,0,0,1,1,1,NaN,NaN,NaN,NaN,NaN,NaN,NaN,NaN,NaN,NaN,NaN,NaN,NaN,NaN,NaN,NaN,NaN,NaN,NaN,NaN,NaN,,NaN,NaN,NaN,NaN,NaN,NaN,NaN,NaN,NaN,NaN,NaN,,,NaN,NaN,NaN,NaN,822.992831200361,822.992831200361,822.992831200361,822.992831200361,822.992831200361,1.56635802469136,1.36644169967622,ScrollUp,정답,824.381849400699,824.381849400699,824.882514500059,825.437217500061,NaN,,NaN,NaN,NaN,,,NaN,,,NaN,NaN,NaN,,NaN,NaN,NaN,NaN,NaN,NaN,NaN,34,67,여자,yes,yes,yes,yes,no,2023-06-07_16h14.14.162,Main,2022.2.4,29.9992740888713
3,나를 보내줘,6,Green,A,0,0,ScrollUp,ScrollDown,Green.png,1,NonTarget,NonTarget,,,NaN,,,NaN,NaN,NaN,NaN,NaN,NaN,NaN,NaN,NaN,NaN,NaN,NaN,0,0,0,0,NaN,NaN,NaN,NaN,NaN,NaN,NaN,NaN,0,0,0,0,NaN,NaN,NaN,NaN,0,0,0,0,0,2,2,2,NaN,NaN,NaN,NaN,NaN,NaN,NaN,NaN,NaN,NaN,NaN,NaN,NaN,NaN,NaN,NaN,NaN,NaN,NaN,NaN,NaN,,NaN,NaN,NaN,NaN,NaN,NaN,NaN,NaN,NaN,NaN,NaN,,,NaN,NaN,NaN,NaN,825.437217500061,825.437217500061,825.437217500061,825.437217500061,825.437217500061,1.79166666666667,1.72876739967614,ScrollUp,정답,827.148715400137,827.148715400137,827.648705200292,828.166038900614,NaN,,NaN,NaN,NaN,,,NaN,,,NaN,NaN,NaN,,NaN,NaN,NaN,NaN,NaN,NaN,NaN,34,67,여자,yes,yes,yes,yes,no,2023-06-07_16h14.14.162,Main,2022.2.4,29.9992740888713
4,넌 수동적이야,4,Green,A,2.83333333333333,2.93333333333333,ScrollDown,ScrollUp,Green.png,1,Negative,Incongruent,,,NaN,,,NaN,NaN,NaN,NaN,NaN,NaN,NaN,NaN,NaN,NaN,NaN,NaN,0,0,0,0,NaN,NaN,NaN,NaN,NaN,NaN,NaN,NaN,0,0,0,0,NaN,NaN,NaN,NaN,0,0,0,0,0,3,3,3,NaN,NaN,NaN,NaN,NaN,NaN,NaN,NaN,NaN,NaN,NaN,NaN,NaN,NaN,NaN,NaN,NaN,NaN,NaN,NaN,NaN,,NaN,NaN,NaN,NaN,NaN,NaN,NaN,NaN,NaN,NaN,NaN,,,NaN,NaN,NaN,NaN,828.166038900614,828.166038900614,828.166038900614,828.166038900614,828.166038900614,1.12808641975309,1.8984278999269,ScrollDown,정답,830.082009200007,830.082009200007,830.582413700409,831.09488010034,NaN,,NaN,NaN,NaN,,,NaN,,,NaN,NaN,NaN,,NaN,NaN,NaN,NaN,NaN,NaN,NaN,34,67,여자,yes,yes,yes,yes,no,2023-06-07_16h14.14.162,Main,2022.2.4,29.9992740888713
5,넌 사심이 없어,3,Orange,B,4.91666666666667,4.33333333333333,ScrollUp,ScrollDown,Orange.png,1,Neutral,Neutral,,,NaN,,,NaN,NaN,NaN,NaN,NaN,NaN,NaN,NaN,NaN,NaN,NaN,NaN,0,0,0,0,NaN,NaN,NaN,NaN,NaN,NaN,NaN,NaN,0,0,0,0,NaN,NaN,NaN,NaN,0,0,0,0,0,4,4,4,NaN,NaN,NaN,NaN,NaN,NaN,NaN,NaN,NaN,NaN,NaN,NaN,NaN,NaN,NaN,NaN,NaN,NaN,NaN,NaN,NaN,,NaN,NaN,NaN,NaN,NaN,NaN,NaN,NaN,NaN,NaN,NaN,,,NaN,NaN,NaN,NaN,831.09488010034,831.09488010034,831.09488010034,831.09488010034,831.09488010034,1.66512345679012,1.76532700005919,ScrollUp,정답,832.8821181003,832.8821181003,833.382138100453,833.893695699982,NaN,,NaN,NaN,NaN,,,NaN,,,NaN,NaN,NaN,,NaN,NaN,NaN,NaN,NaN,NaN,NaN,34,67,여자,yes,yes,yes,yes,no,2023-06-07_16h14.14.162,Main,2022.2.4,29.9992740888713
6,넌 헤퍼,5,Green,A,2.45833333333333,2.23333333333333,ScrollDown,ScrollUp,Green.png,1,Negative,Incongruent,,,NaN,,,NaN,NaN,NaN,NaN,NaN,NaN,NaN,NaN,NaN,NaN,NaN,NaN,0,0,0,0,NaN,NaN,NaN,NaN,NaN,NaN,NaN,NaN,0,0,0,0,NaN,NaN,NaN,NaN,0,0,0,0,0,5,5,5,NaN,NaN,NaN,NaN,NaN,NaN,NaN,NaN,NaN,NaN,NaN,NaN,NaN,NaN,NaN,NaN,NaN,NaN,NaN,NaN,NaN,,NaN,NaN,NaN,NaN,NaN,NaN,NaN,NaN,NaN,NaN,NaN,,,NaN,NaN,NaN,NaN,833.893695699982,833.893695699982,833.893695699982,833.893695699982,833.893695699982,1.12808641975309,1.76622830051929,ScrollDown,정답,835.682016599923,835.682016599923,836.181873899885,836.684631800279,NaN,,NaN,NaN,NaN,,,NaN,,,NaN,NaN,NaN,,NaN,NaN,NaN,NaN,NaN,NaN,NaN,34,67,여자,yes,yes,yes,yes,no,2023-06-07_16h14.14.162,Main,2022.2.4,29.9992740888713
7,넌 말쑥해,3,Green,A,4.83333333333333,4.33333333333333,ScrollDown,ScrollUp,Green.png,1,Neutral,Neutral,,,NaN,,,NaN,NaN,NaN,NaN,NaN,NaN,NaN,NaN,NaN,NaN,NaN,NaN,0,0,0,0,NaN,NaN,NaN,NaN,NaN,NaN,NaN,NaN,0,0,0,0,NaN,NaN,NaN,NaN,0,0,0,0,0,6,6,6,NaN,NaN,NaN,NaN,NaN,NaN,NaN,NaN,NaN,NaN,NaN,NaN,NaN,NaN,NaN,NaN,NaN,NaN,NaN,NaN,NaN,,NaN,NaN,NaN,NaN,NaN,NaN,NaN,NaN,NaN,NaN,NaN,,,NaN,NaN,NaN,NaN,836.684631800279,836.684631800279,836.684631800279,836.684631800279,836.684631800279,1.07253086419753,1.46446900069714,ScrollDown,정답,838.181972800754,838.181972800754,838.682008700445,839.191668000072,NaN,,NaN,NaN,NaN,,,NaN,,,NaN,NaN,NaN,,NaN,NaN,NaN,NaN,NaN,NaN,NaN,34,67,여자,yes,yes,yes,yes,no,2023-06-07_16h14.14.162,Main,2022.2.4,29.9992740888713
8,넌 투덜거려,5,Orange,B,2.54166666666667,2.26666666666667,ScrollUp,ScrollDown,Orange.png,1,Negative,Congruent,,,NaN,,,NaN,NaN,NaN,NaN,NaN,NaN,NaN,NaN,NaN,NaN,NaN,NaN,0,0,0,0,NaN,NaN,NaN,NaN,NaN,NaN,NaN,NaN,0,0,0,0,NaN,NaN,NaN,NaN,0,0,0,0,0,7,7,7,NaN,NaN,NaN,NaN,NaN,NaN,NaN,NaN,NaN,NaN,NaN,NaN,NaN,NaN,NaN,NaN,NaN,NaN,NaN,NaN,NaN,,NaN,NaN,NaN,NaN,NaN,NaN,NaN,NaN,NaN,NaN,NaN,,,NaN,NaN,NaN,NaN,839.191668000072,839.191668000072,839.191668000072,839.191668000072,839.191668000072,1.82253086419753,1.53357519954443,ScrollUp,정답,840.748772600666,840.748772600666,841.24865199998,841.754715099931,NaN,,NaN,NaN,NaN,,,NaN,,,NaN,NaN,NaN,,NaN,NaN,NaN,NaN,NaN,NaN,NaN,34,67,여자,yes,yes,yes,yes,no,2023-06-07_16h14.14.162,Main,2022.2.4,29.9992740888713
9,넌 적극적이야,1,Green,A,5.70833333333333,5.53333333333333,ScrollDown,ScrollUp,Green.png,1,Positive,Congruent,,,NaN,,,NaN,NaN,NaN,NaN,NaN,NaN,NaN,NaN,NaN,NaN,NaN,NaN,0,0,0,0,NaN,NaN,NaN,NaN,NaN,NaN,NaN,NaN,0,0,0,0,NaN,NaN,NaN,NaN,0,0,0,0,0,8,8,8,NaN,NaN,NaN,NaN,NaN,NaN,NaN,NaN,NaN,NaN,NaN,NaN,NaN,NaN,NaN,NaN,NaN,NaN,NaN,NaN,NaN,,NaN,NaN,NaN,NaN,NaN,NaN,NaN,NaN,NaN,NaN,NaN,,,NaN,NaN,NaN,NaN,841.754715099931,841.754715099931,841.754715099931,841.754715099931,841.754715099931,1.16666666666667,1.7657432993874,ScrollDown,정답,843.548673900776,843.548673900776,844.04866520036,844.560988199897,NaN,,NaN,NaN,NaN,,,NaN,,,NaN,NaN,NaN,,NaN,NaN,NaN,NaN,NaN,NaN,NaN,34,67,여자,yes,yes,yes,yes,no,2023-06-07_16h14.14.162,Main,2022.2.4,29.9992740888713
10,넌 재미없어,4,Orange,B,2.625,2.96666666666667,ScrollUp,ScrollDown,Orange.png,1,Negative,Congruent,,,NaN,,,NaN,NaN,NaN,NaN,NaN,NaN,NaN,NaN,NaN,NaN,NaN,NaN,0,0,0,0,NaN,NaN,NaN,NaN,NaN,NaN,NaN,NaN,0,0,0,0,NaN,NaN,NaN,NaN,0,0,0,0,0,9,9,9,NaN,NaN,NaN,NaN,NaN,NaN,NaN,NaN,NaN,NaN,NaN,NaN,NaN,NaN,NaN,NaN,NaN,NaN,NaN,NaN,NaN,,NaN,NaN,NaN,NaN,NaN,NaN,NaN,NaN,NaN,NaN,NaN,,,NaN,NaN,NaN,NaN,844.560988199897,844.560988199897,844.560988199897,844.560988199897,844.560988199897,1.66203703703704,1.19962059985846,ScrollUp,정답,845.781830900349,845.781830900349,846.282139300369,846.791067000479,NaN,,NaN,NaN,NaN,,,NaN,,,NaN,NaN,NaN,,NaN,NaN,NaN,NaN,NaN,NaN,NaN,34,67,여자,yes,yes,yes,yes,no,2023-06-07_16h14.14.162,Main,2022.2.4,29.9992740888713
11,넌 명석해,2,Green,A,5.875,4.03333333333333,ScrollDown,ScrollUp,Green.png,1,Positive,Congruent,,,NaN,,,NaN,NaN,NaN,NaN,NaN,NaN,NaN,NaN,NaN,NaN,NaN,NaN,0,0,0,0,NaN,NaN,NaN,NaN,NaN,NaN,NaN,NaN,0,0,0,0,NaN,NaN,NaN,NaN,0,0,0,0,0,10,10,10,NaN,NaN,NaN,NaN,NaN,NaN,NaN,NaN,NaN,NaN,NaN,NaN,NaN,NaN,NaN,NaN,NaN,NaN,NaN,NaN,NaN,,NaN,NaN,NaN,NaN,NaN,NaN,NaN,NaN,NaN,NaN,NaN,,,NaN,NaN,NaN,NaN,846.791067000479,846.791067000479,846.791067000479,846.791067000479,846.791067000479,1.23611111111111,1.3325356002897,ScrollDown,정답,848.148694900796,848.148694900796,848.648705800064,849.190787300467,NaN,,NaN,NaN,NaN,,,NaN,,,NaN,NaN,NaN,,NaN,NaN,NaN,NaN,NaN,NaN,NaN,34,67,여자,yes,yes,yes,yes,no,2023-06-07_16h14.14.162,Main,2022.2.4,29.9992740888713
12,나를 데려가줘,6,Orange,B,0,0,ScrollDown,ScrollUp,Orange.png,1,NonTarget,NonTarget,,,NaN,,,NaN,NaN,NaN,NaN,NaN,NaN,NaN,NaN,NaN,NaN,NaN,NaN,0,0,0,0,NaN,NaN,NaN,NaN,NaN,NaN,NaN,NaN,0,0,0,0,NaN,NaN,NaN,NaN,0,0,0,0,0,11,11,11,NaN,NaN,NaN,NaN,NaN,NaN,NaN,NaN,NaN,NaN,NaN,NaN,NaN,NaN,NaN,NaN,NaN,NaN,NaN,NaN,NaN,,NaN,NaN,NaN,NaN,NaN,NaN,NaN,NaN,NaN,NaN,NaN,,,NaN,NaN,NaN,NaN,849.190787300467,849.190787300467,849.190787300467,849.190787300467,849.190787300467,1.17438271604938,2.82852550037205,ScrollDown,정답,852.015332200564,852.015332200564,852.515757100657,853.019733600318,NaN,,NaN,NaN,NaN,,,NaN,,,NaN,NaN,NaN,,NaN,NaN,NaN,NaN,NaN,NaN,NaN,34,67,여자,yes,yes,yes,yes,no,2023-06-07_16h14.14.162,Main,2022.2.4,29.9992740888713
13,넌 소심해,4,Green,A,3,3.1,ScrollDown,ScrollUp,Green.png,1,Negative,Incongruent,,,NaN,,,NaN,NaN,NaN,NaN,NaN,NaN,NaN,NaN,NaN,NaN,NaN,NaN,0,0,0,0,NaN,NaN,NaN,NaN,NaN,NaN,NaN,NaN,0,0,0,0,NaN,NaN,NaN,NaN,0,0,0,0,0,12,12,12,NaN,NaN,NaN,NaN,NaN,NaN,NaN,NaN,NaN,NaN,NaN,NaN,NaN,NaN,NaN,NaN,NaN,NaN,NaN,NaN,NaN,,NaN,NaN,NaN,NaN,NaN,NaN,NaN,NaN,NaN,NaN,NaN,,,NaN,NaN,NaN,NaN,853.019733600318,853.019733600318,853.019733600318,853.019733600318,853.019733600318,1.02469135802469,2.33300699945539,ScrollDown,정답,855.382125300355,855.382125300355,855.882553600706,856.38689630013,NaN,,NaN,NaN,NaN,,,NaN,,,NaN,NaN,NaN,,NaN,NaN,NaN,NaN,NaN,NaN,NaN,34,67,여자,yes,yes,yes,yes,no,2023-06-07_16h14.14.162,Main,2022.2.4,29.9992740888713
14,넌 합리적이야,2,Green,A,5.58333333333333,4.73333333333333,ScrollDown,ScrollUp,Green.png,1,Positive,Congruent,,,NaN,,,NaN,NaN,NaN,NaN,NaN,NaN,NaN,NaN,NaN,NaN,NaN,NaN,0,0,0,0,NaN,NaN,NaN,NaN,NaN,NaN,NaN,NaN,0,0,0,0,NaN,NaN,NaN,NaN,0,0,0,0,0,13,13,13,NaN,NaN,NaN,NaN,NaN,NaN,NaN,NaN,NaN,NaN,NaN,NaN,NaN,NaN,NaN,NaN,NaN,NaN,NaN,NaN,NaN,,NaN,NaN,NaN,NaN,NaN,NaN,NaN,NaN,NaN,NaN,NaN,,,NaN,NaN,NaN,NaN,856.38689630013,856.38689630013,856.38689630013,856.38689630013,856.38689630013,1.21141975308642,1.33339290041476,ScrollDown,정답,857.748665400781,857.748665400781,858.248709500767,858.792089700699,NaN,,NaN,NaN,NaN,,,NaN,,,NaN,NaN,NaN,,NaN,NaN,NaN,NaN,NaN,NaN,NaN,34,67,여자,yes,yes,yes,yes,no,2023-06-07_16h14.14.162,Main,2022.2.4,29.9992740888713
15,넌 무자비해,5,Orange,B,2.33333333333333,2.1,ScrollUp,ScrollDown,Orange.png,1,Negative,Congruent,,,NaN,,,NaN,NaN,NaN,NaN,NaN,NaN,NaN,NaN,NaN,NaN,NaN,NaN,0,0,0,0,NaN,NaN,NaN,NaN,NaN,NaN,NaN,NaN,0,0,0,0,NaN,NaN,NaN,NaN,0,0,0,0,0,14,14,14,NaN,NaN,NaN,NaN,NaN,NaN,NaN,NaN,NaN,NaN,NaN,NaN,NaN,NaN,NaN,NaN,NaN,NaN,NaN,NaN,NaN,,NaN,NaN,NaN,NaN,NaN,NaN,NaN,NaN,NaN,NaN,NaN,,,NaN,NaN,NaN,NaN,858.792089700699,858.792089700699,858.792089700699,858.792089700699,858.792089700699,1.75925925925926,1.42766309995204,ScrollUp,정답,860.21537100058,860.21537100058,860.715456000529,861.221015600488,NaN,,NaN,NaN,NaN,,,NaN,,,NaN,NaN,NaN,,NaN,NaN,NaN,NaN,NaN,NaN,NaN,34,67,여자,yes,yes,yes,yes,no,2023-06-07_16h14.14.162,Main,2022.2.4,29.9992740888713
16,나를 보내줘,6,Green,A,0,0,ScrollUp,ScrollDown,Green.png,1,NonTarget,NonTarget,,,NaN,,,NaN,NaN,NaN,NaN,NaN,NaN,NaN,NaN,NaN,NaN,NaN,NaN,0,0,0,0,NaN,NaN,NaN,NaN,NaN,NaN,NaN,NaN,0,0,0,0,NaN,NaN,NaN,NaN,0,0,0,0,0,15,15,15,NaN,NaN,NaN,NaN,NaN,NaN,NaN,NaN,NaN,NaN,NaN,NaN,NaN,NaN,NaN,NaN,NaN,NaN,NaN,NaN,NaN,,NaN,NaN,NaN,NaN,NaN,NaN,NaN,NaN,NaN,NaN,NaN,,,NaN,NaN,NaN,NaN,861.221015600488,861.221015600488,861.221015600488,861.221015600488,861.221015600488,1.68518518518519,1.86647199932486,ScrollUp,정답,863.115350200795,863.115350200795,863.615434300154,864.123135100119,NaN,,NaN,NaN,NaN,,,NaN,,,NaN,NaN,NaN,,NaN,NaN,NaN,NaN,NaN,NaN,NaN,34,67,여자,yes,yes,yes,yes,no,2023-06-07_16h14.14.162,Main,2022.2.4,29.9992740888713
17,넌 현실적이야,3,Orange,B,4.60869565217391,4.76666666666667,ScrollUp,ScrollDown,Orange.png,1,Neutral,Neutral,,,NaN,,,NaN,NaN,NaN,NaN,NaN,NaN,NaN,NaN,NaN,NaN,NaN,NaN,0,0,0,0,NaN,NaN,NaN,NaN,NaN,NaN,NaN,NaN,0,0,0,0,NaN,NaN,NaN,NaN,0,0,0,0,0,16,16,16,NaN,NaN,NaN,NaN,NaN,NaN,NaN,NaN,NaN,NaN,NaN,NaN,NaN,NaN,NaN,NaN,NaN,NaN,NaN,NaN,NaN,,NaN,NaN,NaN,NaN,NaN,NaN,NaN,NaN,NaN,NaN,NaN,,,NaN,NaN,NaN,NaN,864.123135100119,864.123135100119,864.123135100119,864.123135100119,864.123135100119,1.71759259259259,1.79979689978063,ScrollUp,정답,865.948766400106,865.948766400106,866.44881730061,866.954347700812,NaN,,NaN,NaN,NaN,,,NaN,,,NaN,NaN,NaN,,NaN,NaN,NaN,NaN,NaN,NaN,NaN,34,67,여자,yes,yes,yes,yes,no,2023-06-07_16h14.14.162,Main,2022.2.4,29.9992740888713
18,넌 의리있어,1,Orange,B,5.83333333333333,5.63333333333333,ScrollUp,ScrollDown,Orange.png,1,Positive,Incongruent,,,NaN,,,NaN,NaN,NaN,NaN,NaN,NaN,NaN,NaN,NaN,NaN,NaN,NaN,0,0,0,0,NaN,NaN,NaN,NaN,NaN,NaN,NaN,NaN,0,0,0,0,NaN,NaN,NaN,NaN,0,0,0,0,0,17,17,17,NaN,NaN,NaN,NaN,NaN,NaN,NaN,NaN,NaN,NaN,NaN,NaN,NaN,NaN,NaN,NaN,NaN,NaN,NaN,NaN,NaN,,NaN,NaN,NaN,NaN,NaN,NaN,NaN,NaN,NaN,NaN,NaN,,,NaN,NaN,NaN,NaN,866.954347700812,866.954347700812,866.954347700812,866.954347700812,866.954347700812,1.62037037037037,1.13335849996656,ScrollUp,정답,868.115387700498,868.115387700498,868.615383800119,869.134001700208,NaN,,NaN,NaN,NaN,,,NaN,,,NaN,NaN,NaN,,NaN,NaN,NaN,NaN,NaN,NaN,NaN,34,67,여자,yes,yes,yes,yes,no,2023-06-07_16h14.14.162,Main,2022.2.4,29.9992740888713
19,넌 신경과민이야,5,Green,A,2.54166666666667,2.16666666666667,ScrollDown,ScrollUp,Green.png,1,Negative,Incongruent,,,NaN,,,NaN,NaN,NaN,NaN,NaN,NaN,NaN,NaN,NaN,NaN,NaN,NaN,0,0,0,0,NaN,NaN,NaN,NaN,NaN,NaN,NaN,NaN,0,0,0,0,NaN,NaN,NaN,NaN,0,0,0,0,0,18,18,18,NaN,NaN,NaN,NaN,NaN,NaN,NaN,NaN,NaN,NaN,NaN,NaN,NaN,NaN,NaN,NaN,NaN,NaN,NaN,NaN,NaN,,NaN,NaN,NaN,NaN,NaN,NaN,NaN,NaN,NaN,NaN,NaN,,,NaN,NaN,NaN,NaN,869.134001700208,869.134001700208,869.134001700208,869.134001700208,869.134001700208,1.3641975308642,2.23401870019734,ScrollDown,정답,871.382064400241,871.382064400241,871.88199970033,872.387878000736,NaN,,NaN,NaN,NaN,,,NaN,,,NaN,NaN,NaN,,NaN,NaN,NaN,NaN,NaN,NaN,NaN,34,67,여자,yes,yes,yes,yes,no,2023-06-07_16h14.14.162,Main,2022.2.4,29.9992740888713
20,넌 편안해,1,Green,A,5.91666666666667,5.86666666666667,ScrollDown,ScrollUp,Green.png,1,Positive,Congruent,,,NaN,,,NaN,NaN,NaN,NaN,NaN,NaN,NaN,NaN,NaN,NaN,NaN,NaN,0,0,0,0,NaN,NaN,NaN,NaN,NaN,NaN,NaN,NaN,0,0,0,0,NaN,NaN,NaN,NaN,0,0,0,0,0,19,19,19,NaN,NaN,NaN,NaN,NaN,NaN,NaN,NaN,NaN,NaN,NaN,NaN,NaN,NaN,NaN,NaN,NaN,NaN,NaN,NaN,NaN,,NaN,NaN,NaN,NaN,NaN,NaN,NaN,NaN,NaN,NaN,NaN,,,NaN,NaN,NaN,NaN,872.387878000736,872.387878000736,872.387878000736,872.387878000736,872.387878000736,1.43672839506173,1.26636300049722,ScrollDown,정답,873.68206610065,873.68206610065,874.181857100688,874.689013300464,NaN,,NaN,NaN,NaN,,,NaN,,,NaN,NaN,NaN,,NaN,NaN,NaN,NaN,NaN,NaN,NaN,34,67,여자,yes,yes,yes,yes,no,2023-06-07_16h14.14.162,Main,2022.2.4,29.9992740888713
21,넌 품위있어,2,Orange,B,5.29166666666667,4.46666666666667,ScrollUp,ScrollDown,Orange.png,1,Positive,Incongruent,,,NaN,,,NaN,NaN,NaN,NaN,NaN,NaN,NaN,NaN,NaN,NaN,NaN,NaN,0,0,0,0,NaN,NaN,NaN,NaN,NaN,NaN,NaN,NaN,0,0,0,0,NaN,NaN,NaN,NaN,0,0,0,0,0,20,20,20,NaN,NaN,NaN,NaN,NaN,NaN,NaN,NaN,NaN,NaN,NaN,NaN,NaN,NaN,NaN,NaN,NaN,NaN,NaN,NaN,NaN,,NaN,NaN,NaN,NaN,NaN,NaN,NaN,NaN,NaN,NaN,NaN,,,NaN,NaN,NaN,NaN,874.689013300464,874.689013300464,874.689013300464,874.689013300464,874.689013300464,1.56018518518519,1.43294840026647,ScrollUp,정답,876.148510300554,876.148510300554,876.648610300384,877.156041200273,NaN,,NaN,NaN,NaN,,,NaN,,,NaN,NaN,NaN,,NaN,NaN,NaN,NaN,NaN,NaN,NaN,34,67,여자,yes,yes,yes,yes,no,2023-06-07_16h14.14.162,Main,2022.2.4,29.9992740888713
22,넌 빈틈없어,3,Green,A,4.83333333333333,3.96666666666667,ScrollDown,ScrollUp,Green.png,1,Neutral,Neutral,,,NaN,,,NaN,NaN,NaN,NaN,NaN,NaN,NaN,NaN,NaN,NaN,NaN,NaN,0,0,0,0,NaN,NaN,NaN,NaN,NaN,NaN,NaN,NaN,0,0,0,0,NaN,NaN,NaN,NaN,0,0,0,0,0,21,21,21,NaN,NaN,NaN,NaN,NaN,NaN,NaN,NaN,NaN,NaN,NaN,NaN,NaN,NaN,NaN,NaN,NaN,NaN,NaN,NaN,NaN,,NaN,NaN,NaN,NaN,NaN,NaN,NaN,NaN,NaN,NaN,NaN,,,NaN,NaN,NaN,NaN,877.156041200273,877.156041200273,877.156041200273,877.156041200273,877.156041200273,1.43981481481481,1.70008739922196,ScrollDown,정답,878.882072000764,878.882072000764,879.382154799998,879.890484000556,NaN,,NaN,NaN,NaN,,,NaN,,,NaN,NaN,NaN,,NaN,NaN,NaN,NaN,NaN,NaN,NaN,34,67,여자,yes,yes,yes,yes,no,2023-06-07_16h14.14.162,Main,2022.2.4,29.9992740888713
23,넌 상상력없어,4,Orange,B,2.83333333333333,3.13333333333333,ScrollUp,ScrollDown,Orange.png,1,Negative,Congruent,,,NaN,,,NaN,NaN,NaN,NaN,NaN,NaN,NaN,NaN,NaN,NaN,NaN,NaN,0,0,0,0,NaN,NaN,NaN,NaN,NaN,NaN,NaN,NaN,0,0,0,0,NaN,NaN,NaN,NaN,0,0,0,0,0,22,22,22,NaN,NaN,NaN,NaN,NaN,NaN,NaN,NaN,NaN,NaN,NaN,NaN,NaN,NaN,NaN,NaN,NaN,NaN,NaN,NaN,NaN,,NaN,NaN,NaN,NaN,NaN,NaN,NaN,NaN,NaN,NaN,NaN,,,NaN,NaN,NaN,NaN,879.890484000556,879.890484000556,879.890484000556,879.890484000556,879.890484000556,1.68364197530864,1.36680319998413,ScrollUp,정답,881.281955299899,881.281955299899,881.782009100541,882.28178420011,NaN,,NaN,NaN,NaN,,,NaN,,,NaN,NaN,NaN,,NaN,NaN,NaN,NaN,NaN,NaN,NaN,34,67,여자,yes,yes,yes,yes,no,2023-06-07_16h14.14.162,Main,2022.2.4,29.9992740888713
24,넌 지혜로워,2,Orange,B,6.33333333333333,4.63333333333333,ScrollUp,ScrollDown,Orange.png,1,Positive,Incongruent,,,NaN,,,NaN,NaN,NaN,NaN,NaN,NaN,NaN,NaN,NaN,NaN,NaN,NaN,0,0,0,0,NaN,NaN,NaN,NaN,NaN,NaN,NaN,NaN,0,0,0,0,NaN,NaN,NaN,NaN,0,0,0,0,0,23,23,23,NaN,NaN,NaN,NaN,NaN,NaN,NaN,NaN,NaN,NaN,NaN,NaN,NaN,NaN,NaN,NaN,NaN,NaN,NaN,NaN,NaN,,NaN,NaN,NaN,NaN,NaN,NaN,NaN,NaN,NaN,NaN,NaN,,,NaN,NaN,NaN,NaN,882.28178420011,882.28178420011,882.28178420011,882.28178420011,882.28178420011,1.80864197530864,1.06774189975113,ScrollUp,정답,883.382136600092,883.382136600092,883.882078400813,884.398531900719,NaN,,NaN,NaN,NaN,,,NaN,,,NaN,NaN,NaN,,NaN,NaN,NaN,NaN,NaN,NaN,NaN,34,67,여자,yes,yes,yes,yes,no,2023-06-07_16h14.14.162,Main,2022.2.4,29.9992740888713
25,넌 시끄러워,4,Green,A,2.83333333333333,3.03333333333333,ScrollDown,ScrollUp,Green.png,1,Negative,Incongruent,,,NaN,,,NaN,NaN,NaN,NaN,NaN,NaN,NaN,NaN,NaN,NaN,NaN,NaN,0,0,0,0,NaN,NaN,NaN,NaN,NaN,NaN,NaN,NaN,0,0,0,0,NaN,NaN,NaN,NaN,0,0,0,0,0,24,24,24,NaN,NaN,NaN,NaN,NaN,NaN,NaN,NaN,NaN,NaN,NaN,NaN,NaN,NaN,NaN,NaN,NaN,NaN,NaN,NaN,NaN,,NaN,NaN,NaN,NaN,NaN,NaN,NaN,NaN,NaN,NaN,NaN,,,NaN,NaN,NaN,NaN,884.398531900719,884.398531900719,884.398531900719,884.398531900719,884.398531900719,1.15123456790123,1.83328429982066,ScrollDown,정답,886.248822200112,886.248822200112,886.748732000589,887.256777900271,NaN,,NaN,NaN,NaN,,,NaN,,,NaN,NaN,NaN,,NaN,NaN,NaN,NaN,NaN,NaN,NaN,34,67,여자,yes,yes,yes,yes,no,2023-06-07_16h14.14.162,Main,2022.2.4,29.9992740888713
26,넌 만사태평이야,3,Orange,B,4,4.33333333333333,ScrollUp,ScrollDown,Orange.png,1,Neutral,Neutral,,,NaN,,,NaN,NaN,NaN,NaN,NaN,NaN,NaN,NaN,NaN,NaN,NaN,NaN,0,0,0,0,NaN,NaN,NaN,NaN,NaN,NaN,NaN,NaN,0,0,0,0,NaN,NaN,NaN,NaN,0,0,0,0,0,25,25,25,NaN,NaN,NaN,NaN,NaN,NaN,NaN,NaN,NaN,NaN,NaN,NaN,NaN,NaN,NaN,NaN,NaN,NaN,NaN,NaN,NaN,,NaN,NaN,NaN,NaN,NaN,NaN,NaN,NaN,NaN,NaN,NaN,,,NaN,NaN,NaN,NaN,887.256777900271,887.256777900271,887.256777900271,887.256777900271,887.256777900271,1.67592592592593,1.1325350003317,ScrollUp,정답,888.415454600006,888.415454600006,888.915396400727,889.423862600699,NaN,,NaN,NaN,NaN,,,NaN,,,NaN,NaN,NaN,,NaN,NaN,NaN,NaN,NaN,NaN,NaN,34,67,여자,yes,yes,yes,yes,no,2023-06-07_16h14.14.162,Main,2022.2.4,29.9992740888713
27,넌 붙임성있어,1,Green,A,5.70833333333333,5.63333333333333,ScrollDown,ScrollUp,Green.png,1,Positive,Congruent,,,NaN,,,NaN,NaN,NaN,NaN,NaN,NaN,NaN,NaN,NaN,NaN,NaN,NaN,0,0,0,0,NaN,NaN,NaN,NaN,NaN,NaN,NaN,NaN,0,0,0,0,NaN,NaN,NaN,NaN,0,0,0,0,0,26,26,26,NaN,NaN,NaN,NaN,NaN,NaN,NaN,NaN,NaN,NaN,NaN,NaN,NaN,NaN,NaN,NaN,NaN,NaN,NaN,NaN,NaN,,NaN,NaN,NaN,NaN,NaN,NaN,NaN,NaN,NaN,NaN,NaN,,,NaN,NaN,NaN,NaN,889.423862600699,889.423862600699,889.423862600699,889.423862600699,889.423862600699,1.2962962962963,1.43359069991857,ScrollDown,정답,890.882061400451,890.882061400451,891.382074400783,891.881839199923,NaN,,NaN,NaN,NaN,,,NaN,,,NaN,NaN,NaN,,NaN,NaN,NaN,NaN,NaN,NaN,NaN,34,67,여자,yes,yes,yes,yes,no,2023-06-07_16h14.14.162,Main,2022.2.4,29.9992740888713
28,넌 영리해,2,Green,A,6,4.03333333333333,ScrollDown,ScrollUp,Green.png,1,Positive,Congruent,,,NaN,,,NaN,NaN,NaN,NaN,NaN,NaN,NaN,NaN,NaN,NaN,NaN,NaN,0,0,0,0,NaN,NaN,NaN,NaN,NaN,NaN,NaN,NaN,0,0,0,0,NaN,NaN,NaN,NaN,0,0,0,0,0,27,27,27,NaN,NaN,NaN,NaN,NaN,NaN,NaN,NaN,NaN,NaN,NaN,NaN,NaN,NaN,NaN,NaN,NaN,NaN,NaN,NaN,NaN,,NaN,NaN,NaN,NaN,NaN,NaN,NaN,NaN,NaN,NaN,NaN,,,NaN,NaN,NaN,NaN,891.881839199923,891.881839199923,891.881839199923,891.881839199923,891.881839199923,1.44135802469136,1.37145570013672,ScrollDown,정답,893.282085200772,893.282085200772,893.782036600634,894.286141400225,NaN,,NaN,NaN,NaN,,,NaN,,,NaN,NaN,NaN,,NaN,NaN,NaN,NaN,NaN,NaN,NaN,34,67,여자,yes,yes,yes,yes,no,2023-06-07_16h14.14.162,Main,2022.2.4,29.9992740888713
29,넌 열심이야,1,Orange,B,6.04166666666667,5.83333333333333,ScrollUp,ScrollDown,Orange.png,1,Positive,Incongruent,,,NaN,,,NaN,NaN,NaN,NaN,NaN,NaN,NaN,NaN,NaN,NaN,NaN,NaN,0,0,0,0,NaN,NaN,NaN,NaN,NaN,NaN,NaN,NaN,0,0,0,0,NaN,NaN,NaN,NaN,0,0,0,0,0,28,28,28,NaN,NaN,NaN,NaN,NaN,NaN,NaN,NaN,NaN,NaN,NaN,NaN,NaN,NaN,NaN,NaN,NaN,NaN,NaN,NaN,NaN,,NaN,NaN,NaN,NaN,NaN,NaN,NaN,NaN,NaN,NaN,NaN,,,NaN,NaN,NaN,NaN,894.286141400225,894.286141400225,894.286141400225,894.286141400225,894.286141400225,1.74845679012346,1.23468840029091,ScrollUp,정답,895.548734799959,895.548734799959,896.048729199916,896.548800400458,NaN,,NaN,NaN,NaN,,,NaN,,,NaN,NaN,NaN,,NaN,NaN,NaN,NaN,NaN,NaN,NaN,34,67,여자,yes,yes,yes,yes,no,2023-06-07_16h14.14.162,Main,2022.2.4,29.9992740888713
30,넌 인기없어,4,Orange,B,3,3.3,ScrollUp,ScrollDown,Orange.png,1,Negative,Congruent,,,NaN,,,NaN,NaN,NaN,NaN,NaN,NaN,NaN,NaN,NaN,NaN,NaN,NaN,0,0,0,0,NaN,NaN,NaN,NaN,NaN,NaN,NaN,NaN,0,0,0,0,NaN,NaN,NaN,NaN,0,0,0,0,0,29,29,29,NaN,NaN,NaN,NaN,NaN,NaN,NaN,NaN,NaN,NaN,NaN,NaN,NaN,NaN,NaN,NaN,NaN,NaN,NaN,NaN,NaN,,NaN,NaN,NaN,NaN,NaN,NaN,NaN,NaN,NaN,NaN,NaN,,,NaN,NaN,NaN,NaN,896.548800400458,896.548800400458,896.548800400458,896.548800400458,896.548800400458,1.70524691358025,1.23950980044901,ScrollUp,정답,897.815881400369,897.815881400369,898.315382100642,898.818463200703,NaN,,NaN,NaN,NaN,,,NaN,,,NaN,NaN,NaN,,NaN,NaN,NaN,NaN,NaN,NaN,NaN,34,67,여자,yes,yes,yes,yes,no,2023-06-07_16h14.14.162,Main,2022.2.4,29.9992740888713
31,넌 익살스러워,3,Green,A,4.70833333333333,4.83333333333333,ScrollDown,ScrollUp,Green.png,1,Neutral,Neutral,,,NaN,,,NaN,NaN,NaN,NaN,NaN,NaN,NaN,NaN,NaN,NaN,NaN,NaN,0,0,0,0,NaN,NaN,NaN,NaN,NaN,NaN,NaN,NaN,0,0,0,0,NaN,NaN,NaN,NaN,0,0,0,0,0,30,30,30,NaN,NaN,NaN,NaN,NaN,NaN,NaN,NaN,NaN,NaN,NaN,NaN,NaN,NaN,NaN,NaN,NaN,NaN,NaN,NaN,NaN,,NaN,NaN,NaN,NaN,NaN,NaN,NaN,NaN,NaN,NaN,NaN,,,NaN,NaN,NaN,NaN,898.818463200703,898.818463200703,898.818463200703,898.818463200703,898.818463200703,1.43518518518519,1.17157190013677,ScrollDown,정답,900.015793099999,900.015793099999,900.515494100749,901.018331300467,NaN,,NaN,NaN,NaN,,,NaN,,,NaN,NaN,NaN,,NaN,NaN,NaN,NaN,NaN,NaN,NaN,34,67,여자,yes,yes,yes,yes,no,2023-06-07_16h14.14.162,Main,2022.2.4,29.9992740888713
32,넌 이기적이야,5,Orange,B,2.29166666666667,2.33333333333333,ScrollUp,ScrollDown,Orange.png,1,Negative,Congruent,,,NaN,,,NaN,NaN,NaN,NaN,NaN,NaN,NaN,NaN,NaN,NaN,NaN,NaN,0,0,0,0,NaN,NaN,NaN,NaN,NaN,NaN,NaN,NaN,0,0,0,0,NaN,NaN,NaN,NaN,0,0,0,0,0,31,31,31,NaN,NaN,NaN,NaN,NaN,NaN,NaN,NaN,NaN,NaN,NaN,NaN,NaN,NaN,NaN,NaN,NaN,NaN,NaN,NaN,NaN,,NaN,NaN,NaN,NaN,NaN,NaN,NaN,NaN,NaN,NaN,NaN,,,NaN,NaN,NaN,NaN,901.018331300467,901.018331300467,901.018331300467,901.018331300467,901.018331300467,1.83024691358025,1.10124029964209,ScrollUp,정답,902.14922440052,902.14922440052,902.649144500494,903.15223180037,NaN,,NaN,NaN,NaN,,,NaN,,,NaN,NaN,NaN,,NaN,NaN,NaN,NaN,NaN,NaN,NaN,34,67,여자,yes,yes,yes,yes,no,2023-06-07_16h14.14.162,Main,2022.2.4,29.9992740888713
33,나를 데려가줘,6,Orange,B,0,0,ScrollDown,ScrollUp,Orange.png,1,NonTarget,NonTarget,,,NaN,,,NaN,NaN,NaN,NaN,NaN,NaN,NaN,NaN,NaN,NaN,NaN,NaN,0,0,0,0,NaN,NaN,NaN,NaN,NaN,NaN,NaN,NaN,0,0,0,0,NaN,NaN,NaN,NaN,0,0,0,0,0,32,32,32,NaN,NaN,NaN,NaN,NaN,NaN,NaN,NaN,NaN,NaN,NaN,NaN,NaN,NaN,NaN,NaN,NaN,NaN,NaN,NaN,NaN,,NaN,NaN,NaN,NaN,NaN,NaN,NaN,NaN,NaN,NaN,NaN,,,NaN,NaN,NaN,NaN,903.15223180037,903.15223180037,903.15223180037,903.15223180037,903.15223180037,1.27777777777778,2.63346910011023,ScrollDown,정답,905.815496600233,905.815496600233,906.315406200476,906.81678130012,NaN,,NaN,NaN,NaN,,,NaN,,,NaN,NaN,NaN,,NaN,NaN,NaN,NaN,NaN,NaN,NaN,34,67,여자,yes,yes,yes,yes,no,2023-06-07_16h14.14.162,Main,2022.2.4,29.9992740888713
34,넌 기회주의자야,5,Green,A,2.875,2.13333333333333,ScrollDown,ScrollUp,Green.png,1,Negative,Incongruent,,,NaN,,,NaN,NaN,NaN,NaN,NaN,NaN,NaN,NaN,NaN,NaN,NaN,NaN,0,0,0,0,NaN,NaN,NaN,NaN,NaN,NaN,NaN,NaN,0,0,0,0,NaN,NaN,NaN,NaN,0,0,0,0,0,33,33,33,NaN,NaN,NaN,NaN,NaN,NaN,NaN,NaN,NaN,NaN,NaN,NaN,NaN,NaN,NaN,NaN,NaN,NaN,NaN,NaN,NaN,,NaN,NaN,NaN,NaN,NaN,NaN,NaN,NaN,NaN,NaN,NaN,,,NaN,NaN,NaN,NaN,906.81678130012,906.81678130012,906.81678130012,906.81678130012,906.81678130012,1.17438271604938,1.7666822001338,ScrollDown,정답,908.615441500209,908.615441500209,909.115449200384,909.615511800162,NaN,,NaN,NaN,NaN,,,NaN,,,NaN,NaN,NaN,,NaN,NaN,NaN,NaN,NaN,NaN,NaN,34,67,여자,yes,yes,yes,yes,no,2023-06-07_16h14.14.162,Main,2022.2.4,29.9992740888713
NaN,,NaN,,,NaN,NaN,,,,NaN,,,,,NaN,,,NaN,NaN,NaN,NaN,NaN,NaN,NaN,NaN,NaN,NaN,NaN,NaN,0,0,0,0,NaN,NaN,NaN,NaN,NaN,NaN,NaN,NaN,0,0,0,0,NaN,NaN,NaN,NaN,0,0,0,0,NaN,NaN,NaN,NaN,0,0,0,0,NaN,NaN,NaN,NaN,NaN,NaN,NaN,NaN,NaN,NaN,NaN,NaN,NaN,NaN,NaN,NaN,NaN,,NaN,NaN,NaN,NaN,NaN,NaN,NaN,NaN,NaN,NaN,NaN,,,NaN,NaN,NaN,NaN,NaN,NaN,NaN,NaN,NaN,NaN,NaN,,,NaN,NaN,NaN,NaN,2,,NaN,NaN,NaN,,,NaN,,,NaN,NaN,NaN,,NaN,NaN,NaN,NaN,NaN,NaN,NaN,34,67,여자,yes,yes,yes,yes,no,2023-06-07_16h14.14.162,Main,2022.2.4,29.9992740888713
NaN,,NaN,,,NaN,NaN,,,,NaN,,,,,NaN,,,NaN,NaN,NaN,NaN,NaN,NaN,NaN,NaN,NaN,NaN,NaN,NaN,0,0,0,0,NaN,NaN,NaN,NaN,NaN,NaN,NaN,NaN,0,0,0,0,NaN,NaN,NaN,NaN,0,0,0,0,NaN,NaN,NaN,NaN,NaN,NaN,NaN,NaN,NaN,NaN,NaN,NaN,NaN,NaN,NaN,NaN,NaN,NaN,NaN,NaN,NaN,NaN,NaN,NaN,NaN,,NaN,NaN,NaN,NaN,NaN,NaN,NaN,NaN,NaN,NaN,NaN,,,NaN,NaN,NaN,NaN,NaN,NaN,NaN,NaN,NaN,NaN,NaN,,,NaN,NaN,NaN,NaN,NaN,,NaN,NaN,NaN,,,NaN,,,NaN,NaN,NaN,,NaN,NaN,NaN,NaN,NaN,NaN,NaN,34,67,여자,yes,yes,yes,yes,no,2023-06-07_16h14.14.162,Main,2022.2.4,29.9992740888713
1,넌 미성숙해,4,Green,A,3,3.2,ScrollDown,ScrollUp,Green.png,2,Negative,Incongruent,,,NaN,,,NaN,NaN,NaN,NaN,NaN,NaN,NaN,NaN,NaN,NaN,NaN,NaN,0,0,0,0,NaN,NaN,NaN,NaN,NaN,NaN,NaN,NaN,0,0,0,0,NaN,NaN,NaN,NaN,1,0,1,0,0,0,0,0,NaN,NaN,NaN,NaN,NaN,NaN,NaN,NaN,NaN,NaN,NaN,NaN,NaN,NaN,NaN,NaN,NaN,NaN,NaN,NaN,NaN,,NaN,NaN,NaN,NaN,NaN,NaN,NaN,NaN,NaN,NaN,NaN,,,NaN,NaN,NaN,NaN,956.131745600142,956.131745600142,956.131745600142,956.131745600142,956.131745600142,1.25308641975309,1.4743812000379,ScrollDown,정답,957.648804500699,957.648804500699,958.148613800295,958.659962400794,NaN,,NaN,NaN,NaN,,,NaN,,,NaN,NaN,NaN,,NaN,NaN,NaN,NaN,NaN,NaN,NaN,34,67,여자,yes,yes,yes,yes,no,2023-06-07_16h14.14.162,Main,2022.2.4,29.9992740888713
2,넌 반사회적이야,5,Orange,B,2.41666666666667,2.03333333333333,ScrollUp,ScrollDown,Orange.png,2,Negative,Congruent,,,NaN,,,NaN,NaN,NaN,NaN,NaN,NaN,NaN,NaN,NaN,NaN,NaN,NaN,0,0,0,0,NaN,NaN,NaN,NaN,NaN,NaN,NaN,NaN,0,0,0,0,NaN,NaN,NaN,NaN,1,0,1,0,0,1,1,1,NaN,NaN,NaN,NaN,NaN,NaN,NaN,NaN,NaN,NaN,NaN,NaN,NaN,NaN,NaN,NaN,NaN,NaN,NaN,NaN,NaN,,NaN,NaN,NaN,NaN,NaN,NaN,NaN,NaN,NaN,NaN,NaN,,,NaN,NaN,NaN,NaN,958.659962400794,958.659962400794,958.659962400794,958.659962400794,958.659962400794,1.7283950617284,1.19902199972421,ScrollUp,정답,959.881993800402,959.881993800402,960.382117800415,960.88820700068,NaN,,NaN,NaN,NaN,,,NaN,,,NaN,NaN,NaN,,NaN,NaN,NaN,NaN,NaN,NaN,NaN,34,67,여자,yes,yes,yes,yes,no,2023-06-07_16h14.14.162,Main,2022.2.4,29.9992740888713
3,넌 유능해,2,Green,A,6.20833333333333,4.43333333333333,ScrollDown,ScrollUp,Green.png,2,Positive,Congruent,,,NaN,,,NaN,NaN,NaN,NaN,NaN,NaN,NaN,NaN,NaN,NaN,NaN,NaN,0,0,0,0,NaN,NaN,NaN,NaN,NaN,NaN,NaN,NaN,0,0,0,0,NaN,NaN,NaN,NaN,1,0,1,0,0,2,2,2,NaN,NaN,NaN,NaN,NaN,NaN,NaN,NaN,NaN,NaN,NaN,NaN,NaN,NaN,NaN,NaN,NaN,NaN,NaN,NaN,NaN,,NaN,NaN,NaN,NaN,NaN,NaN,NaN,NaN,NaN,NaN,NaN,,,NaN,NaN,NaN,NaN,960.88820700068,960.88820700068,960.88820700068,960.88820700068,960.88820700068,1.31172839506173,1.10027119982988,ScrollDown,정답,962.01556430012,962.01556430012,962.515496600419,963.042209500447,NaN,,NaN,NaN,NaN,,,NaN,,,NaN,NaN,NaN,,NaN,NaN,NaN,NaN,NaN,NaN,NaN,34,67,여자,yes,yes,yes,yes,no,2023-06-07_16h14.14.162,Main,2022.2.4,29.9992740888713
4,넌 능숙해,2,Orange,B,5.66666666666667,4.73333333333333,ScrollUp,ScrollDown,Orange.png,2,Positive,Incongruent,,,NaN,,,NaN,NaN,NaN,NaN,NaN,NaN,NaN,NaN,NaN,NaN,NaN,NaN,0,0,0,0,NaN,NaN,NaN,NaN,NaN,NaN,NaN,NaN,0,0,0,0,NaN,NaN,NaN,NaN,1,0,1,0,0,3,3,3,NaN,NaN,NaN,NaN,NaN,NaN,NaN,NaN,NaN,NaN,NaN,NaN,NaN,NaN,NaN,NaN,NaN,NaN,NaN,NaN,NaN,,NaN,NaN,NaN,NaN,NaN,NaN,NaN,NaN,NaN,NaN,NaN,,,NaN,NaN,NaN,NaN,963.042209500447,963.042209500447,963.042209500447,963.042209500447,963.042209500447,1.56172839506173,1.15355510078371,ScrollUp,정답,964.204659000039,964.204659000039,964.732141900808,NaN,NaN,,NaN,NaN,NaN,,,NaN,,,NaN,NaN,NaN,,NaN,NaN,NaN,NaN,NaN,NaN,NaN,34,67,여자,yes,yes,yes,yes,no,2023-06-07_16h14.14.162,Main,2022.2.4,29.9992740888713
5,넌 진부해,4,Orange,B,2.45833333333333,3.16666666666667,ScrollUp,ScrollDown,Orange.png,2,Negative,Congruent,,,NaN,,,NaN,NaN,NaN,NaN,NaN,NaN,NaN,NaN,NaN,NaN,NaN,NaN,0,0,0,0,NaN,NaN,NaN,NaN,NaN,NaN,NaN,NaN,0,0,0,0,NaN,NaN,NaN,NaN,1,0,1,0,0,4,4,4,NaN,NaN,NaN,NaN,NaN,NaN,NaN,NaN,NaN,NaN,NaN,NaN,NaN,NaN,NaN,NaN,NaN,NaN,NaN,NaN,NaN,,NaN,NaN,NaN,NaN,NaN,NaN,NaN,NaN,NaN,NaN,NaN,,,NaN,NaN,NaN,NaN,965.231827300042,965.231827300042,965.231827300042,965.231827300042,965.231827300042,1.66358024691358,1.00093490071595,ScrollUp,정답,966.265905800276,966.265905800276,966.765920000151,967.27242520079,NaN,,NaN,NaN,NaN,,,NaN,,,NaN,NaN,NaN,,NaN,NaN,NaN,NaN,NaN,NaN,NaN,34,67,여자,yes,yes,yes,yes,no,2023-06-07_16h14.14.162,Main,2022.2.4,29.9992740888713
6,나를 보내줘,6,Green,A,0,0,ScrollUp,ScrollDown,Green.png,2,NonTarget,NonTarget,,,NaN,,,NaN,NaN,NaN,NaN,NaN,NaN,NaN,NaN,NaN,NaN,NaN,NaN,0,0,0,0,NaN,NaN,NaN,NaN,NaN,NaN,NaN,NaN,0,0,0,0,NaN,NaN,NaN,NaN,1,0,1,0,0,5,5,5,NaN,NaN,NaN,NaN,NaN,NaN,NaN,NaN,NaN,NaN,NaN,NaN,NaN,NaN,NaN,NaN,NaN,NaN,NaN,NaN,NaN,,NaN,NaN,NaN,NaN,NaN,NaN,NaN,NaN,NaN,NaN,NaN,,,NaN,NaN,NaN,NaN,967.27242520079,967.27242520079,967.27242520079,967.27242520079,967.27242520079,1.52932098765432,2.86547190044075,NoResponse,무응답,970.165424400009,970.165424400009,970.665446200408,971.165261500515,NaN,,NaN,NaN,NaN,,,NaN,,,NaN,NaN,NaN,,NaN,NaN,NaN,NaN,NaN,NaN,NaN,34,67,여자,yes,yes,yes,yes,no,2023-06-07_16h14.14.162,Main,2022.2.4,29.9992740888713
7,넌 엄격해,3,Green,A,4.16666666666667,4.1,ScrollDown,ScrollUp,Green.png,2,Neutral,Neutral,,,NaN,,,NaN,NaN,NaN,NaN,NaN,NaN,NaN,NaN,NaN,NaN,NaN,NaN,0,0,0,0,NaN,NaN,NaN,NaN,NaN,NaN,NaN,NaN,0,0,0,0,NaN,NaN,NaN,NaN,1,0,1,0,0,6,6,6,NaN,NaN,NaN,NaN,NaN,NaN,NaN,NaN,NaN,NaN,NaN,NaN,NaN,NaN,NaN,NaN,NaN,NaN,NaN,NaN,NaN,,NaN,NaN,NaN,NaN,NaN,NaN,NaN,NaN,NaN,NaN,NaN,,,NaN,NaN,NaN,NaN,971.165261500515,971.165261500515,971.165261500515,971.165261500515,971.165261500515,1.21450617283951,1.43299790006131,ScrollDown,정답,972.632201500237,972.632201500237,973.132221300155,973.632117399946,NaN,,NaN,NaN,NaN,,,NaN,,,NaN,NaN,NaN,,NaN,NaN,NaN,NaN,NaN,NaN,NaN,34,67,여자,yes,yes,yes,yes,no,2023-06-07_16h14.14.162,Main,2022.2.4,29.9992740888713
8,나를 보내줘,6,Green,A,0,0,ScrollUp,ScrollDown,Green.png,2,NonTarget,NonTarget,,,NaN,,,NaN,NaN,NaN,NaN,NaN,NaN,NaN,NaN,NaN,NaN,NaN,NaN,0,0,0,0,NaN,NaN,NaN,NaN,NaN,NaN,NaN,NaN,0,0,0,0,NaN,NaN,NaN,NaN,1,0,1,0,0,7,7,7,NaN,NaN,NaN,NaN,NaN,NaN,NaN,NaN,NaN,NaN,NaN,NaN,NaN,NaN,NaN,NaN,NaN,NaN,NaN,NaN,NaN,,NaN,NaN,NaN,NaN,NaN,NaN,NaN,NaN,NaN,NaN,NaN,,,NaN,NaN,NaN,NaN,973.632117399946,973.632117399946,973.632117399946,973.632117399946,973.632117399946,1.7283950617284,1.50013530068099,ScrollUp,정답,975.165478000417,975.165478000417,975.665474200621,976.17193219997,NaN,,NaN,NaN,NaN,,,NaN,,,NaN,NaN,NaN,,NaN,NaN,NaN,NaN,NaN,NaN,NaN,34,67,여자,yes,yes,yes,yes,no,2023-06-07_16h14.14.162,Main,2022.2.4,29.9992740888713
9,넌 대담해,3,Orange,B,4.875,4.86666666666667,ScrollUp,ScrollDown,Orange.png,2,Neutral,Neutral,,,NaN,,,NaN,NaN,NaN,NaN,NaN,NaN,NaN,NaN,NaN,NaN,NaN,NaN,0,0,0,0,NaN,NaN,NaN,NaN,NaN,NaN,NaN,NaN,0,0,0,0,NaN,NaN,NaN,NaN,1,0,1,0,0,8,8,8,NaN,NaN,NaN,NaN,NaN,NaN,NaN,NaN,NaN,NaN,NaN,NaN,NaN,NaN,NaN,NaN,NaN,NaN,NaN,NaN,NaN,,NaN,NaN,NaN,NaN,NaN,NaN,NaN,NaN,NaN,NaN,NaN,,,NaN,NaN,NaN,NaN,976.17193219997,976.17193219997,976.17193219997,976.17193219997,976.17193219997,1.62191358024691,2.30025839991868,ScrollUp,정답,978.498820400797,978.498820400797,978.998868100345,979.503810300492,NaN,,NaN,NaN,NaN,,,NaN,,,NaN,NaN,NaN,,NaN,NaN,NaN,NaN,NaN,NaN,NaN,34,67,여자,yes,yes,yes,yes,no,2023-06-07_16h14.14.162,Main,2022.2.4,29.9992740888713
10,넌 꾸준해,1,Green,A,5.91666666666667,5.8,ScrollDown,ScrollUp,Green.png,2,Positive,Congruent,,,NaN,,,NaN,NaN,NaN,NaN,NaN,NaN,NaN,NaN,NaN,NaN,NaN,NaN,0,0,0,0,NaN,NaN,NaN,NaN,NaN,NaN,NaN,NaN,0,0,0,0,NaN,NaN,NaN,NaN,1,0,1,0,0,9,9,9,NaN,NaN,NaN,NaN,NaN,NaN,NaN,NaN,NaN,NaN,NaN,NaN,NaN,NaN,NaN,NaN,NaN,NaN,NaN,NaN,NaN,,NaN,NaN,NaN,NaN,NaN,NaN,NaN,NaN,NaN,NaN,NaN,,,NaN,NaN,NaN,NaN,979.503810300492,979.503810300492,979.503810300492,979.503810300492,979.503810300492,1.03858024691358,1.76727830059826,ScrollDown,정답,981.298831700347,981.298831700347,981.798763399944,982.301602800377,NaN,,NaN,NaN,NaN,,,NaN,,,NaN,NaN,NaN,,NaN,NaN,NaN,NaN,NaN,NaN,NaN,34,67,여자,yes,yes,yes,yes,no,2023-06-07_16h14.14.162,Main,2022.2.4,29.9992740888713
11,나를 데려가줘,6,Orange,B,0,0,ScrollDown,ScrollUp,Orange.png,2,NonTarget,NonTarget,,,NaN,,,NaN,NaN,NaN,NaN,NaN,NaN,NaN,NaN,NaN,NaN,NaN,NaN,0,0,0,0,NaN,NaN,NaN,NaN,NaN,NaN,NaN,NaN,0,0,0,0,NaN,NaN,NaN,NaN,1,0,1,0,0,10,10,10,NaN,NaN,NaN,NaN,NaN,NaN,NaN,NaN,NaN,NaN,NaN,NaN,NaN,NaN,NaN,NaN,NaN,NaN,NaN,NaN,NaN,,NaN,NaN,NaN,NaN,NaN,NaN,NaN,NaN,NaN,NaN,NaN,,,NaN,NaN,NaN,NaN,982.301602800377,982.301602800377,982.301602800377,982.301602800377,982.301602800377,1.37962962962963,1.83289700001478,ScrollDown,정답,984.165503500029,984.165503500029,984.665371900424,985.171486100182,NaN,,NaN,NaN,NaN,,,NaN,,,NaN,NaN,NaN,,NaN,NaN,NaN,NaN,NaN,NaN,NaN,34,67,여자,yes,yes,yes,yes,no,2023-06-07_16h14.14.162,Main,2022.2.4,29.9992740888713
12,넌 독선적이야,5,Green,A,2.45833333333333,1.93333333333333,ScrollDown,ScrollUp,Green.png,2,Negative,Incongruent,,,NaN,,,NaN,NaN,NaN,NaN,NaN,NaN,NaN,NaN,NaN,NaN,NaN,NaN,0,0,0,0,NaN,NaN,NaN,NaN,NaN,NaN,NaN,NaN,0,0,0,0,NaN,NaN,NaN,NaN,1,0,1,0,0,11,11,11,NaN,NaN,NaN,NaN,NaN,NaN,NaN,NaN,NaN,NaN,NaN,NaN,NaN,NaN,NaN,NaN,NaN,NaN,NaN,NaN,NaN,,NaN,NaN,NaN,NaN,NaN,NaN,NaN,NaN,NaN,NaN,NaN,,,NaN,NaN,NaN,NaN,985.171486100182,985.171486100182,985.171486100182,985.171486100182,985.171486100182,1.24382716049383,1.49939149990678,ScrollDown,정답,986.698857299984,986.698857299984,987.198933000676,987.699235500768,NaN,,NaN,NaN,NaN,,,NaN,,,NaN,NaN,NaN,,NaN,NaN,NaN,NaN,NaN,NaN,NaN,34,67,여자,yes,yes,yes,yes,no,2023-06-07_16h14.14.162,Main,2022.2.4,29.9992740888713
13,나를 보내줘,6,Green,A,0,0,ScrollUp,ScrollDown,Green.png,2,NonTarget,NonTarget,,,NaN,,,NaN,NaN,NaN,NaN,NaN,NaN,NaN,NaN,NaN,NaN,NaN,NaN,0,0,0,0,NaN,NaN,NaN,NaN,NaN,NaN,NaN,NaN,0,0,0,0,NaN,NaN,NaN,NaN,1,0,1,0,0,12,12,12,NaN,NaN,NaN,NaN,NaN,NaN,NaN,NaN,NaN,NaN,NaN,NaN,NaN,NaN,NaN,NaN,NaN,NaN,NaN,NaN,NaN,,NaN,NaN,NaN,NaN,NaN,NaN,NaN,NaN,NaN,NaN,NaN,,,NaN,NaN,NaN,NaN,987.699235500768,987.699235500768,987.699235500768,987.699235500768,987.699235500768,1.55401234567901,1.63333280012012,ScrollUp,정답,989.365598800592,989.365598800592,989.865395500325,990.372766700573,NaN,,NaN,NaN,NaN,,,NaN,,,NaN,NaN,NaN,,NaN,NaN,NaN,NaN,NaN,NaN,NaN,34,67,여자,yes,yes,yes,yes,no,2023-06-07_16h14.14.162,Main,2022.2.4,29.9992740888713
14,넌 책임감있어,1,Orange,B,6.34782608695652,6,ScrollUp,ScrollDown,Orange.png,2,Positive,Incongruent,,,NaN,,,NaN,NaN,NaN,NaN,NaN,NaN,NaN,NaN,NaN,NaN,NaN,NaN,0,0,0,0,NaN,NaN,NaN,NaN,NaN,NaN,NaN,NaN,0,0,0,0,NaN,NaN,NaN,NaN,1,0,1,0,0,13,13,13,NaN,NaN,NaN,NaN,NaN,NaN,NaN,NaN,NaN,NaN,NaN,NaN,NaN,NaN,NaN,NaN,NaN,NaN,NaN,NaN,NaN,,NaN,NaN,NaN,NaN,NaN,NaN,NaN,NaN,NaN,NaN,NaN,,,NaN,NaN,NaN,NaN,990.372766700573,990.372766700573,990.372766700573,990.372766700573,990.372766700573,1.49537037037037,1.83252640068531,NoResponse,무응답,992.232165900059,992.232165900059,992.732194900513,993.238080900162,NaN,,NaN,NaN,NaN,,,NaN,,,NaN,NaN,NaN,,NaN,NaN,NaN,NaN,NaN,NaN,NaN,34,67,여자,yes,yes,yes,yes,no,2023-06-07_16h14.14.162,Main,2022.2.4,29.9992740888713
15,넌 문학적이야,3,Green,A,4.70833333333333,4.33333333333333,ScrollDown,ScrollUp,Green.png,2,Neutral,Neutral,,,NaN,,,NaN,NaN,NaN,NaN,NaN,NaN,NaN,NaN,NaN,NaN,NaN,NaN,0,0,0,0,NaN,NaN,NaN,NaN,NaN,NaN,NaN,NaN,0,0,0,0,NaN,NaN,NaN,NaN,1,0,1,0,0,14,14,14,NaN,NaN,NaN,NaN,NaN,NaN,NaN,NaN,NaN,NaN,NaN,NaN,NaN,NaN,NaN,NaN,NaN,NaN,NaN,NaN,NaN,,NaN,NaN,NaN,NaN,NaN,NaN,NaN,NaN,NaN,NaN,NaN,,,NaN,NaN,NaN,NaN,993.238080900162,993.238080900162,993.238080900162,993.238080900162,993.238080900162,1.30092592592593,1.79906939994544,ScrollDown,정답,995.0656387005,995.0656387005,995.565934500657,996.067285000347,NaN,,NaN,NaN,NaN,,,NaN,,,NaN,NaN,NaN,,NaN,NaN,NaN,NaN,NaN,NaN,NaN,34,67,여자,yes,yes,yes,yes,no,2023-06-07_16h14.14.162,Main,2022.2.4,29.9992740888713
16,넌 재미있어,1,Orange,B,5.875,5.7,ScrollUp,ScrollDown,Orange.png,2,Positive,Incongruent,,,NaN,,,NaN,NaN,NaN,NaN,NaN,NaN,NaN,NaN,NaN,NaN,NaN,NaN,0,0,0,0,NaN,NaN,NaN,NaN,NaN,NaN,NaN,NaN,0,0,0,0,NaN,NaN,NaN,NaN,1,0,1,0,0,15,15,15,NaN,NaN,NaN,NaN,NaN,NaN,NaN,NaN,NaN,NaN,NaN,NaN,NaN,NaN,NaN,NaN,NaN,NaN,NaN,NaN,NaN,,NaN,NaN,NaN,NaN,NaN,NaN,NaN,NaN,NaN,NaN,NaN,,,NaN,NaN,NaN,NaN,996.067285000347,996.067285000347,996.067285000347,996.067285000347,996.067285000347,1.64814814814815,1.60009580012411,ScrollUp,정답,997.698645500466,997.698645500466,998.198861500248,998.702605400234,NaN,,NaN,NaN,NaN,,,NaN,,,NaN,NaN,NaN,,NaN,NaN,NaN,NaN,NaN,NaN,NaN,34,67,여자,yes,yes,yes,yes,no,2023-06-07_16h14.14.162,Main,2022.2.4,29.9992740888713
17,나를 데려가줘,6,Orange,B,0,0,ScrollDown,ScrollUp,Orange.png,2,NonTarget,NonTarget,,,NaN,,,NaN,NaN,NaN,NaN,NaN,NaN,NaN,NaN,NaN,NaN,NaN,NaN,0,0,0,0,NaN,NaN,NaN,NaN,NaN,NaN,NaN,NaN,0,0,0,0,NaN,NaN,NaN,NaN,1,0,1,0,0,16,16,16,NaN,NaN,NaN,NaN,NaN,NaN,NaN,NaN,NaN,NaN,NaN,NaN,NaN,NaN,NaN,NaN,NaN,NaN,NaN,NaN,NaN,,NaN,NaN,NaN,NaN,NaN,NaN,NaN,NaN,NaN,NaN,NaN,,,NaN,NaN,NaN,NaN,998.702605400234,998.702605400234,998.702605400234,998.702605400234,998.702605400234,1.34104938271605,1.7329930998385,ScrollDown,정답,1000.46551720053,1000.46551720053,1000.96624420024,1001.50784010068,NaN,,NaN,NaN,NaN,,,NaN,,,NaN,NaN,NaN,,NaN,NaN,NaN,NaN,NaN,NaN,NaN,34,67,여자,yes,yes,yes,yes,no,2023-06-07_16h14.14.162,Main,2022.2.4,29.9992740888713
18,넌 협력적이야,1,Green,A,5.625,5.63333333333333,ScrollDown,ScrollUp,Green.png,2,Positive,Congruent,,,NaN,,,NaN,NaN,NaN,NaN,NaN,NaN,NaN,NaN,NaN,NaN,NaN,NaN,0,0,0,0,NaN,NaN,NaN,NaN,NaN,NaN,NaN,NaN,0,0,0,0,NaN,NaN,NaN,NaN,1,0,1,0,0,17,17,17,NaN,NaN,NaN,NaN,NaN,NaN,NaN,NaN,NaN,NaN,NaN,NaN,NaN,NaN,NaN,NaN,NaN,NaN,NaN,NaN,NaN,,NaN,NaN,NaN,NaN,NaN,NaN,NaN,NaN,NaN,NaN,NaN,,,NaN,NaN,NaN,NaN,1001.50784010068,1001.50784010068,1001.50784010068,1001.50784010068,1001.50784010068,1.12037037037037,1.56326829921454,ScrollDown,정답,1003.06549880002,1003.06549880002,1003.56553969998,1004.07008730061,NaN,,NaN,NaN,NaN,,,NaN,,,NaN,NaN,NaN,,NaN,NaN,NaN,NaN,NaN,NaN,NaN,34,67,여자,yes,yes,yes,yes,no,2023-06-07_16h14.14.162,Main,2022.2.4,29.9992740888713
19,넌 평범해,3,Orange,B,4.33333333333333,4.23333333333333,ScrollUp,ScrollDown,Orange.png,2,Neutral,Neutral,,,NaN,,,NaN,NaN,NaN,NaN,NaN,NaN,NaN,NaN,NaN,NaN,NaN,NaN,0,0,0,0,NaN,NaN,NaN,NaN,NaN,NaN,NaN,NaN,0,0,0,0,NaN,NaN,NaN,NaN,1,0,1,0,0,18,18,18,NaN,NaN,NaN,NaN,NaN,NaN,NaN,NaN,NaN,NaN,NaN,NaN,NaN,NaN,NaN,NaN,NaN,NaN,NaN,NaN,NaN,,NaN,NaN,NaN,NaN,NaN,NaN,NaN,NaN,NaN,NaN,NaN,,,NaN,NaN,NaN,NaN,1004.07008730061,1004.07008730061,1004.07008730061,1004.07008730061,1004.07008730061,1.66512345679012,1.19956819992512,ScrollUp,정답,1005.29894510005,1005.29894510005,1005.79893510044,1006.29853969999,NaN,,NaN,NaN,NaN,,,NaN,,,NaN,NaN,NaN,,NaN,NaN,NaN,NaN,NaN,NaN,NaN,34,67,여자,yes,yes,yes,yes,no,2023-06-07_16h14.14.162,Main,2022.2.4,29.9992740888713
20,넌 오만해,5,Green,A,2.33333333333333,2,ScrollDown,ScrollUp,Green.png,2,Negative,Incongruent,,,NaN,,,NaN,NaN,NaN,NaN,NaN,NaN,NaN,NaN,NaN,NaN,NaN,NaN,0,0,0,0,NaN,NaN,NaN,NaN,NaN,NaN,NaN,NaN,0,0,0,0,NaN,NaN,NaN,NaN,1,0,1,0,0,19,19,19,NaN,NaN,NaN,NaN,NaN,NaN,NaN,NaN,NaN,NaN,NaN,NaN,NaN,NaN,NaN,NaN,NaN,NaN,NaN,NaN,NaN,,NaN,NaN,NaN,NaN,NaN,NaN,NaN,NaN,NaN,NaN,NaN,,,NaN,NaN,NaN,NaN,1006.29853969999,1006.29853969999,1006.29853969999,1006.29853969999,1006.29853969999,1.17283950617284,1.83375880029052,ScrollDown,정답,1008.1654949002,1008.1654949002,1008.66554670036,1009.16625020001,NaN,,NaN,NaN,NaN,,,NaN,,,NaN,NaN,NaN,,NaN,NaN,NaN,NaN,NaN,NaN,NaN,34,67,여자,yes,yes,yes,yes,no,2023-06-07_16h14.14.162,Main,2022.2.4,29.9992740888713
21,넌 운이없어,4,Orange,B,3,3.46666666666667,ScrollUp,ScrollDown,Orange.png,2,Negative,Congruent,,,NaN,,,NaN,NaN,NaN,NaN,NaN,NaN,NaN,NaN,NaN,NaN,NaN,NaN,0,0,0,0,NaN,NaN,NaN,NaN,NaN,NaN,NaN,NaN,0,0,0,0,NaN,NaN,NaN,NaN,1,0,1,0,0,20,20,20,NaN,NaN,NaN,NaN,NaN,NaN,NaN,NaN,NaN,NaN,NaN,NaN,NaN,NaN,NaN,NaN,NaN,NaN,NaN,NaN,NaN,,NaN,NaN,NaN,NaN,NaN,NaN,NaN,NaN,NaN,NaN,NaN,,,NaN,NaN,NaN,NaN,1009.16625020001,1009.16625020001,1009.16625020001,1009.16625020001,1009.16625020001,1.70524691358025,1.19929509982467,ScrollUp,정답,1010.39882260002,1010.39882260002,1010.89886910003,1011.39989980031,NaN,,NaN,NaN,NaN,,,NaN,,,NaN,NaN,NaN,,NaN,NaN,NaN,NaN,NaN,NaN,NaN,34,67,여자,yes,yes,yes,yes,no,2023-06-07_16h14.14.162,Main,2022.2.4,29.9992740888713
22,넌 창조적이야,2,Orange,B,6.125,4.63333333333333,ScrollUp,ScrollDown,Orange.png,2,Positive,Incongruent,,,NaN,,,NaN,NaN,NaN,NaN,NaN,NaN,NaN,NaN,NaN,NaN,NaN,NaN,0,0,0,0,NaN,NaN,NaN,NaN,NaN,NaN,NaN,NaN,0,0,0,0,NaN,NaN,NaN,NaN,1,0,1,0,0,21,21,21,NaN,NaN,NaN,NaN,NaN,NaN,NaN,NaN,NaN,NaN,NaN,NaN,NaN,NaN,NaN,NaN,NaN,NaN,NaN,NaN,NaN,,NaN,NaN,NaN,NaN,NaN,NaN,NaN,NaN,NaN,NaN,NaN,,,NaN,NaN,NaN,NaN,1011.39989980031,1011.39989980031,1011.39989980031,1011.39989980031,1011.39989980031,1.7283950617284,1.69953760039061,ScrollUp,정답,1013.1321657002,1013.1321657002,1013.63204180077,1014.13261179999,NaN,,NaN,NaN,NaN,,,NaN,,,NaN,NaN,NaN,,NaN,NaN,NaN,NaN,NaN,NaN,NaN,34,67,여자,yes,yes,yes,yes,no,2023-06-07_16h14.14.162,Main,2022.2.4,29.9992740888713
23,나를 보내줘,6,Green,A,0,0,ScrollUp,ScrollDown,Green.png,2,NonTarget,NonTarget,,,NaN,,,NaN,NaN,NaN,NaN,NaN,NaN,NaN,NaN,NaN,NaN,NaN,NaN,0,0,0,0,NaN,NaN,NaN,NaN,NaN,NaN,NaN,NaN,0,0,0,0,NaN,NaN,NaN,NaN,1,0,1,0,0,22,22,22,NaN,NaN,NaN,NaN,NaN,NaN,NaN,NaN,NaN,NaN,NaN,NaN,NaN,NaN,NaN,NaN,NaN,NaN,NaN,NaN,NaN,,NaN,NaN,NaN,NaN,NaN,NaN,NaN,NaN,NaN,NaN,NaN,,,NaN,NaN,NaN,NaN,1014.13261179999,1014.13261179999,1014.13261179999,1014.13261179999,1014.13261179999,1.68518518518519,1.5995044996962,ScrollUp,정답,1015.76550710015,1015.76550710015,1016.26556710061,1016.78457370028,NaN,,NaN,NaN,NaN,,,NaN,,,NaN,NaN,NaN,,NaN,NaN,NaN,NaN,NaN,NaN,NaN,34,67,여자,yes,yes,yes,yes,no,2023-06-07_16h14.14.162,Main,2022.2.4,29.9992740888713
24,넌 통찰력있어,2,Green,A,6.5,4.8,ScrollDown,ScrollUp,Green.png,2,Positive,Congruent,,,NaN,,,NaN,NaN,NaN,NaN,NaN,NaN,NaN,NaN,NaN,NaN,NaN,NaN,0,0,0,0,NaN,NaN,NaN,NaN,NaN,NaN,NaN,NaN,0,0,0,0,NaN,NaN,NaN,NaN,1,0,1,0,0,23,23,23,NaN,NaN,NaN,NaN,NaN,NaN,NaN,NaN,NaN,NaN,NaN,NaN,NaN,NaN,NaN,NaN,NaN,NaN,NaN,NaN,NaN,,NaN,NaN,NaN,NaN,NaN,NaN,NaN,NaN,NaN,NaN,NaN,,,NaN,NaN,NaN,NaN,1016.78457370028,1016.78457370028,1016.78457370028,1016.78457370028,1016.78457370028,1.21296296296296,1.33207580074668,ScrollDown,정답,1018.13214790076,1018.13214790076,1018.6322313007,1019.18807870056,NaN,,NaN,NaN,NaN,,,NaN,,,NaN,NaN,NaN,,NaN,NaN,NaN,NaN,NaN,NaN,NaN,34,67,여자,yes,yes,yes,yes,no,2023-06-07_16h14.14.162,Main,2022.2.4,29.9992740888713
25,넌 경솔해,5,Orange,B,2.45833333333333,2.26666666666667,ScrollUp,ScrollDown,Orange.png,2,Negative,Congruent,,,NaN,,,NaN,NaN,NaN,NaN,NaN,NaN,NaN,NaN,NaN,NaN,NaN,NaN,0,0,0,0,NaN,NaN,NaN,NaN,NaN,NaN,NaN,NaN,0,0,0,0,NaN,NaN,NaN,NaN,1,0,1,0,0,24,24,24,NaN,NaN,NaN,NaN,NaN,NaN,NaN,NaN,NaN,NaN,NaN,NaN,NaN,NaN,NaN,NaN,NaN,NaN,NaN,NaN,NaN,,NaN,NaN,NaN,NaN,NaN,NaN,NaN,NaN,NaN,NaN,NaN,,,NaN,NaN,NaN,NaN,1019.18807870056,1019.18807870056,1019.18807870056,1019.18807870056,1019.18807870056,1.6358024691358,1.74915379937738,ScrollUp,정답,1020.91564060003,1020.91564060003,1021.41549510043,1021.9174332004,NaN,,NaN,NaN,NaN,,,NaN,,,NaN,NaN,NaN,,NaN,NaN,NaN,NaN,NaN,NaN,NaN,34,67,여자,yes,yes,yes,yes,no,2023-06-07_16h14.14.162,Main,2022.2.4,29.9992740888713
26,넌 초조해,4,Green,A,2.91666666666667,3.13333333333333,ScrollDown,ScrollUp,Green.png,2,Negative,Incongruent,,,NaN,,,NaN,NaN,NaN,NaN,NaN,NaN,NaN,NaN,NaN,NaN,NaN,NaN,0,0,0,0,NaN,NaN,NaN,NaN,NaN,NaN,NaN,NaN,0,0,0,0,NaN,NaN,NaN,NaN,1,0,1,0,0,25,25,25,NaN,NaN,NaN,NaN,NaN,NaN,NaN,NaN,NaN,NaN,NaN,NaN,NaN,NaN,NaN,NaN,NaN,NaN,NaN,NaN,NaN,,NaN,NaN,NaN,NaN,NaN,NaN,NaN,NaN,NaN,NaN,NaN,,,NaN,NaN,NaN,NaN,1021.9174332004,1021.9174332004,1021.9174332004,1021.9174332004,1021.9174332004,1.46450617283951,1.46706859953701,NoResponse,무응답,1023.41543630045,1023.41543630045,1023.91555640008,1024.42141550034,NaN,,NaN,NaN,NaN,,,NaN,,,NaN,NaN,NaN,,NaN,NaN,NaN,NaN,NaN,NaN,NaN,34,67,여자,yes,yes,yes,yes,no,2023-06-07_16h14.14.162,Main,2022.2.4,29.9992740888713
27,넌 무관심해,4,Orange,B,2.83333333333333,2.9,ScrollUp,ScrollDown,Orange.png,2,Negative,Congruent,,,NaN,,,NaN,NaN,NaN,NaN,NaN,NaN,NaN,NaN,NaN,NaN,NaN,NaN,0,0,0,0,NaN,NaN,NaN,NaN,NaN,NaN,NaN,NaN,0,0,0,0,NaN,NaN,NaN,NaN,1,0,1,0,0,26,26,26,NaN,NaN,NaN,NaN,NaN,NaN,NaN,NaN,NaN,NaN,NaN,NaN,NaN,NaN,NaN,NaN,NaN,NaN,NaN,NaN,NaN,,NaN,NaN,NaN,NaN,NaN,NaN,NaN,NaN,NaN,NaN,NaN,,,NaN,NaN,NaN,NaN,1024.42141550034,1024.42141550034,1024.42141550034,1024.42141550034,1024.42141550034,1.83333333333333,1.13326510041952,ScrollUp,정답,1025.58206760045,1025.58206760045,1026.08215000015,1026.58200949989,NaN,,NaN,NaN,NaN,,,NaN,,,NaN,NaN,NaN,,NaN,NaN,NaN,NaN,NaN,NaN,NaN,34,67,여자,yes,yes,yes,yes,no,2023-06-07_16h14.14.162,Main,2022.2.4,29.9992740888713
28,넌 감성적이야,3,Orange,B,4.125,4.16666666666667,ScrollUp,ScrollDown,Orange.png,2,Neutral,Neutral,,,NaN,,,NaN,NaN,NaN,NaN,NaN,NaN,NaN,NaN,NaN,NaN,NaN,NaN,0,0,0,0,NaN,NaN,NaN,NaN,NaN,NaN,NaN,NaN,0,0,0,0,NaN,NaN,NaN,NaN,1,0,1,0,0,27,27,27,NaN,NaN,NaN,NaN,NaN,NaN,NaN,NaN,NaN,NaN,NaN,NaN,NaN,NaN,NaN,NaN,NaN,NaN,NaN,NaN,NaN,,NaN,NaN,NaN,NaN,NaN,NaN,NaN,NaN,NaN,NaN,NaN,,,NaN,NaN,NaN,NaN,1026.58200949989,1026.58200949989,1026.58200949989,1026.58200949989,1026.58200949989,1.75,1.27176930010319,ScrollUp,정답,1027.88247469999,1027.88247469999,1028.38222580031,1028.88839400001,NaN,,NaN,NaN,NaN,,,NaN,,,NaN,NaN,NaN,,NaN,NaN,NaN,NaN,NaN,NaN,NaN,34,67,여자,yes,yes,yes,yes,no,2023-06-07_16h14.14.162,Main,2022.2.4,29.9992740888713
29,넌 배려심있어,1,Green,A,6.08333333333333,5.5,ScrollDown,ScrollUp,Green.png,2,Positive,Congruent,,,NaN,,,NaN,NaN,NaN,NaN,NaN,NaN,NaN,NaN,NaN,NaN,NaN,NaN,0,0,0,0,NaN,NaN,NaN,NaN,NaN,NaN,NaN,NaN,0,0,0,0,NaN,NaN,NaN,NaN,1,0,1,0,0,28,28,28,NaN,NaN,NaN,NaN,NaN,NaN,NaN,NaN,NaN,NaN,NaN,NaN,NaN,NaN,NaN,NaN,NaN,NaN,NaN,NaN,NaN,,NaN,NaN,NaN,NaN,NaN,NaN,NaN,NaN,NaN,NaN,NaN,,,NaN,NaN,NaN,NaN,1028.88839400001,1028.88839400001,1028.88839400001,1028.88839400001,1028.88839400001,1.21913580246914,1.19946420006454,ScrollDown,정답,1030.11594820023,1030.11594820023,1030.6155650001,1031.11510230042,NaN,,NaN,NaN,NaN,,,NaN,,,NaN,NaN,NaN,,NaN,NaN,NaN,NaN,NaN,NaN,NaN,34,67,여자,yes,yes,yes,yes,no,2023-06-07_16h14.14.162,Main,2022.2.4,29.9992740888713
30,넌 숨김없어,3,Green,A,4.5,4.93333333333333,ScrollDown,ScrollUp,Green.png,2,Neutral,Neutral,,,NaN,,,NaN,NaN,NaN,NaN,NaN,NaN,NaN,NaN,NaN,NaN,NaN,NaN,0,0,0,0,NaN,NaN,NaN,NaN,NaN,NaN,NaN,NaN,0,0,0,0,NaN,NaN,NaN,NaN,1,0,1,0,0,29,29,29,NaN,NaN,NaN,NaN,NaN,NaN,NaN,NaN,NaN,NaN,NaN,NaN,NaN,NaN,NaN,NaN,NaN,NaN,NaN,NaN,NaN,,NaN,NaN,NaN,NaN,NaN,NaN,NaN,NaN,NaN,NaN,NaN,,,NaN,NaN,NaN,NaN,1031.11510230042,1031.11510230042,1031.11510230042,1031.11510230042,1031.11510230042,1.15586419753086,1.49910389911383,ScrollDown,정답,1032.64885490015,1032.64885490015,1033.14888380002,1033.65028710011,NaN,,NaN,NaN,NaN,,,NaN,,,NaN,NaN,NaN,,NaN,NaN,NaN,NaN,NaN,NaN,NaN,34,67,여자,yes,yes,yes,yes,no,2023-06-07_16h14.14.162,Main,2022.2.4,29.9992740888713
31,넌 훌륭해,2,Orange,B,5.91666666666667,4.03333333333333,ScrollUp,ScrollDown,Orange.png,2,Positive,Incongruent,,,NaN,,,NaN,NaN,NaN,NaN,NaN,NaN,NaN,NaN,NaN,NaN,NaN,NaN,0,0,0,0,NaN,NaN,NaN,NaN,NaN,NaN,NaN,NaN,0,0,0,0,NaN,NaN,NaN,NaN,1,0,1,0,0,30,30,30,NaN,NaN,NaN,NaN,NaN,NaN,NaN,NaN,NaN,NaN,NaN,NaN,NaN,NaN,NaN,NaN,NaN,NaN,NaN,NaN,NaN,,NaN,NaN,NaN,NaN,NaN,NaN,NaN,NaN,NaN,NaN,NaN,,,NaN,NaN,NaN,NaN,1033.65028710011,1033.65028710011,1033.65028710011,1033.65028710011,1033.65028710011,1.6033950617284,1.16637399978936,ScrollUp,정답,1034.84883940034,1034.84883940034,1035.34877520055,1035.85526620038,NaN,,NaN,NaN,NaN,,,NaN,,,NaN,NaN,NaN,,NaN,NaN,NaN,NaN,NaN,NaN,NaN,34,67,여자,yes,yes,yes,yes,no,2023-06-07_16h14.14.162,Main,2022.2.4,29.9992740888713
32,넌 슬기로워,2,Green,A,6.16666666666667,4.1,ScrollDown,ScrollUp,Green.png,2,Positive,Congruent,,,NaN,,,NaN,NaN,NaN,NaN,NaN,NaN,NaN,NaN,NaN,NaN,NaN,NaN,0,0,0,0,NaN,NaN,NaN,NaN,NaN,NaN,NaN,NaN,0,0,0,0,NaN,NaN,NaN,NaN,1,0,1,0,0,31,31,31,NaN,NaN,NaN,NaN,NaN,NaN,NaN,NaN,NaN,NaN,NaN,NaN,NaN,NaN,NaN,NaN,NaN,NaN,NaN,NaN,NaN,,NaN,NaN,NaN,NaN,NaN,NaN,NaN,NaN,NaN,NaN,NaN,,,NaN,NaN,NaN,NaN,1035.85526620038,1035.85526620038,1035.85526620038,1035.85526620038,1035.85526620038,1.375,1.43292069993913,ScrollDown,정답,1037.31553820055,1037.31553820055,1037.81572370045,1038.31550300028,NaN,,NaN,NaN,NaN,,,NaN,,,NaN,NaN,NaN,,NaN,NaN,NaN,NaN,NaN,NaN,NaN,34,67,여자,yes,yes,yes,yes,no,2023-06-07_16h14.14.162,Main,2022.2.4,29.9992740888713
33,넌 냉혹해,5,Green,A,2.58333333333333,2.1,ScrollDown,ScrollUp,Green.png,2,Negative,Incongruent,,,NaN,,,NaN,NaN,NaN,NaN,NaN,NaN,NaN,NaN,NaN,NaN,NaN,NaN,0,0,0,0,NaN,NaN,NaN,NaN,NaN,NaN,NaN,NaN,0,0,0,0,NaN,NaN,NaN,NaN,1,0,1,0,0,32,32,32,NaN,NaN,NaN,NaN,NaN,NaN,NaN,NaN,NaN,NaN,NaN,NaN,NaN,NaN,NaN,NaN,NaN,NaN,NaN,NaN,NaN,,NaN,NaN,NaN,NaN,NaN,NaN,NaN,NaN,NaN,NaN,NaN,,,NaN,NaN,NaN,NaN,1038.31550300028,1038.31550300028,1038.31550300028,1038.31550300028,1038.31550300028,1.23456790123457,1.23301999922842,ScrollDown,정답,1039.5824192008,1039.5824192008,1040.08213100024,1040.58733930066,NaN,,NaN,NaN,NaN,,,NaN,,,NaN,NaN,NaN,,NaN,NaN,NaN,NaN,NaN,NaN,NaN,34,67,여자,yes,yes,yes,yes,no,2023-06-07_16h14.14.162,Main,2022.2.4,29.9992740888713
34,나를 데려가줘,6,Orange,B,0,0,ScrollDown,ScrollUp,Orange.png,2,NonTarget,NonTarget,,,NaN,,,NaN,NaN,NaN,NaN,NaN,NaN,NaN,NaN,NaN,NaN,NaN,NaN,0,0,0,0,NaN,NaN,NaN,NaN,NaN,NaN,NaN,NaN,0,0,0,0,NaN,NaN,NaN,NaN,1,0,1,0,0,33,33,33,NaN,NaN,NaN,NaN,NaN,NaN,NaN,NaN,NaN,NaN,NaN,NaN,NaN,NaN,NaN,NaN,NaN,NaN,NaN,NaN,NaN,,NaN,NaN,NaN,NaN,NaN,NaN,NaN,NaN,NaN,NaN,NaN,,,NaN,NaN,NaN,NaN,1040.58733930066,1040.58733930066,1040.58733930066,1040.58733930066,1040.58733930066,1.36882716049383,2.19956400059164,ScrollDown,정답,1042.81560790073,1042.81560790073,1043.31527630053,1043.81553800032,NaN,,NaN,NaN,NaN,,,NaN,,,NaN,NaN,NaN,,NaN,NaN,NaN,NaN,NaN,NaN,NaN,34,67,여자,yes,yes,yes,yes,no,2023-06-07_16h14.14.162,Main,2022.2.4,29.9992740888713
35,넌 편파적이야,5,Orange,B,2.125,2,ScrollUp,ScrollDown,Orange.png,2,Negative,Congruent,,,NaN,,,NaN,NaN,NaN,NaN,NaN,NaN,NaN,NaN,NaN,NaN,NaN,NaN,0,0,0,0,NaN,NaN,NaN,NaN,NaN,NaN,NaN,NaN,0,0,0,0,NaN,NaN,NaN,NaN,1,0,1,0,0,34,34,34,NaN,NaN,NaN,NaN,NaN,NaN,NaN,NaN,NaN,NaN,NaN,NaN,NaN,NaN,NaN,NaN,NaN,NaN,NaN,NaN,NaN,,NaN,NaN,NaN,NaN,NaN,NaN,NaN,NaN,NaN,NaN,NaN,,,NaN,NaN,NaN,NaN,1043.81553800032,1043.81553800032,1043.81553800032,1043.81553800032,1043.81553800032,1.4783950617284,1.30006769951433,NoResponse,무응답,1045.14891250059,1045.14891250059,1045.64912590012,1046.17431860045,NaN,,NaN,NaN,NaN,,,NaN,,,NaN,NaN,NaN,,NaN,NaN,NaN,NaN,NaN,NaN,NaN,34,67,여자,yes,yes,yes,yes,no,2023-06-07_16h14.14.162,Main,2022.2.4,29.9992740888713
36,넌 슬퍼,4,Green,A,2.58333333333333,3.06666666666667,ScrollDown,ScrollUp,Green.png,2,Negative,Incongruent,,,NaN,,,NaN,NaN,NaN,NaN,NaN,NaN,NaN,NaN,NaN,NaN,NaN,NaN,0,0,0,0,NaN,NaN,NaN,NaN,NaN,NaN,NaN,NaN,0,0,0,0,NaN,NaN,NaN,NaN,1,0,1,0,0,35,35,35,NaN,NaN,NaN,NaN,NaN,NaN,NaN,NaN,NaN,NaN,NaN,NaN,NaN,NaN,NaN,NaN,NaN,NaN,NaN,NaN,NaN,,NaN,NaN,NaN,NaN,NaN,NaN,NaN,NaN,NaN,NaN,NaN,,,NaN,NaN,NaN,NaN,1046.17431860045,1046.17431860045,1046.17431860045,1046.17431860045,1046.17431860045,1.36265432098765,1.64640780072659,ScrollDown,정답,1047.83213840052,1047.83213840052,1048.33209099993,1048.8367696004,NaN,,NaN,NaN,NaN,,,NaN,,,NaN,NaN,NaN,,NaN,NaN,NaN,NaN,NaN,NaN,NaN,34,67,여자,yes,yes,yes,yes,no,2023-06-07_16h14.14.162,Main,2022.2.4,29.9992740888713
37,나를 데려가줘,6,Orange,B,0,0,ScrollDown,ScrollUp,Orange.png,2,NonTarget,NonTarget,,,NaN,,,NaN,NaN,NaN,NaN,NaN,NaN,NaN,NaN,NaN,NaN,NaN,NaN,0,0,0,0,NaN,NaN,NaN,NaN,NaN,NaN,NaN,NaN,0,0,0,0,NaN,NaN,NaN,NaN,1,0,1,0,0,36,36,36,NaN,NaN,NaN,NaN,NaN,NaN,NaN,NaN,NaN,NaN,NaN,NaN,NaN,NaN,NaN,NaN,NaN,NaN,NaN,NaN,NaN,,NaN,NaN,NaN,NaN,NaN,NaN,NaN,NaN,NaN,NaN,NaN,,,NaN,NaN,NaN,NaN,1048.8367696004,1048.8367696004,1048.8367696004,1048.8367696004,1048.8367696004,1.26234567901235,1.9668044000864,ScrollDown,정답,1050.83208380081,1050.83208380081,1051.3321964005,1051.83481440041,NaN,,NaN,NaN,NaN,,,NaN,,,NaN,NaN,NaN,,NaN,NaN,NaN,NaN,NaN,NaN,NaN,34,67,여자,yes,yes,yes,yes,no,2023-06-07_16h14.14.162,Main,2022.2.4,29.9992740888713
38,넌 친절해,1,Orange,B,6.04166666666667,5.53333333333333,ScrollUp,ScrollDown,Orange.png,2,Positive,Incongruent,,,NaN,,,NaN,NaN,NaN,NaN,NaN,NaN,NaN,NaN,NaN,NaN,NaN,NaN,0,0,0,0,NaN,NaN,NaN,NaN,NaN,NaN,NaN,NaN,0,0,0,0,NaN,NaN,NaN,NaN,1,0,1,0,0,37,37,37,NaN,NaN,NaN,NaN,NaN,NaN,NaN,NaN,NaN,NaN,NaN,NaN,NaN,NaN,NaN,NaN,NaN,NaN,NaN,NaN,NaN,,NaN,NaN,NaN,NaN,NaN,NaN,NaN,NaN,NaN,NaN,NaN,,,NaN,NaN,NaN,NaN,1051.83481440041,1051.83481440041,1051.83481440041,1051.83481440041,1051.83481440041,1.67283950617284,1.56582789961249,ScrollUp,정답,1053.43223730009,1053.43223730009,1053.93236090057,1054.43260810059,NaN,,NaN,NaN,NaN,,,NaN,,,NaN,NaN,NaN,,NaN,NaN,NaN,NaN,NaN,NaN,NaN,34,67,여자,yes,yes,yes,yes,no,2023-06-07_16h14.14.162,Main,2022.2.4,29.9992740888713
NaN,,NaN,,,NaN,NaN,,,,NaN,,,,,NaN,,,NaN,NaN,NaN,NaN,NaN,NaN,NaN,NaN,NaN,NaN,NaN,NaN,0,0,0,0,NaN,NaN,NaN,NaN,NaN,NaN,NaN,NaN,0,0,0,0,NaN,NaN,NaN,NaN,1,0,1,0,NaN,NaN,NaN,NaN,0,0,0,0,NaN,NaN,NaN,NaN,NaN,NaN,NaN,NaN,NaN,NaN,NaN,NaN,NaN,NaN,NaN,NaN,NaN,,NaN,NaN,NaN,NaN,NaN,NaN,NaN,NaN,NaN,NaN,NaN,,,NaN,NaN,NaN,NaN,NaN,NaN,NaN,NaN,NaN,NaN,NaN,,,NaN,NaN,NaN,NaN,3,,NaN,NaN,NaN,,,NaN,,,NaN,NaN,NaN,,NaN,NaN,NaN,NaN,NaN,NaN,NaN,34,67,여자,yes,yes,yes,yes,no,2023-06-07_16h14.14.162,Main,2022.2.4,29.9992740888713
NaN,,NaN,,,NaN,NaN,,,,NaN,,,,,NaN,,,NaN,NaN,NaN,NaN,NaN,NaN,NaN,NaN,NaN,NaN,NaN,NaN,0,0,0,0,NaN,NaN,NaN,NaN,NaN,NaN,NaN,NaN,0,0,0,0,NaN,NaN,NaN,NaN,1,0,1,0,NaN,NaN,NaN,NaN,NaN,NaN,NaN,NaN,NaN,NaN,NaN,NaN,NaN,NaN,NaN,NaN,NaN,NaN,NaN,NaN,NaN,NaN,NaN,NaN,NaN,,NaN,NaN,NaN,NaN,NaN,NaN,NaN,NaN,NaN,NaN,NaN,,,NaN,NaN,NaN,NaN,NaN,NaN,NaN,NaN,NaN,NaN,NaN,,,NaN,NaN,NaN,NaN,NaN,,NaN,NaN,NaN,,,NaN,,,NaN,NaN,NaN,,NaN,NaN,NaN,NaN,NaN,NaN,NaN,34,67,여자,yes,yes,yes,yes,no,2023-06-07_16h14.14.162,Main,2022.2.4,29.9992740888713
1,넌 엉성해,4,Green,A,3,3.3,ScrollDown,ScrollUp,Green.png,3,Negative,Incongruent,,,NaN,,,NaN,NaN,NaN,NaN,NaN,NaN,NaN,NaN,NaN,NaN,NaN,NaN,0,0,0,0,NaN,NaN,NaN,NaN,NaN,NaN,NaN,NaN,0,0,0,0,NaN,NaN,NaN,NaN,2,0,2,0,0,0,0,0,NaN,NaN,NaN,NaN,NaN,NaN,NaN,NaN,NaN,NaN,NaN,NaN,NaN,NaN,NaN,NaN,NaN,NaN,NaN,NaN,NaN,,NaN,NaN,NaN,NaN,NaN,NaN,NaN,NaN,NaN,NaN,NaN,,,NaN,NaN,NaN,NaN,1093.22650280036,1093.22650280036,1093.22650280036,1093.22650280036,1093.22650280036,1.22222222222222,1.45724970009178,ScrollDown,정답,1094.71565970033,1094.71565970033,1095.21563600004,1095.7169812005,NaN,,NaN,NaN,NaN,,,NaN,,,NaN,NaN,NaN,,NaN,NaN,NaN,NaN,NaN,NaN,NaN,34,67,여자,yes,yes,yes,yes,no,2023-06-07_16h14.14.162,Main,2022.2.4,29.9992740888713
2,나를 보내줘,6,Green,A,0,0,ScrollUp,ScrollDown,Green.png,3,NonTarget,NonTarget,,,NaN,,,NaN,NaN,NaN,NaN,NaN,NaN,NaN,NaN,NaN,NaN,NaN,NaN,0,0,0,0,NaN,NaN,NaN,NaN,NaN,NaN,NaN,NaN,0,0,0,0,NaN,NaN,NaN,NaN,2,0,2,0,0,1,1,1,NaN,NaN,NaN,NaN,NaN,NaN,NaN,NaN,NaN,NaN,NaN,NaN,NaN,NaN,NaN,NaN,NaN,NaN,NaN,NaN,NaN,,NaN,NaN,NaN,NaN,NaN,NaN,NaN,NaN,NaN,NaN,NaN,,,NaN,NaN,NaN,NaN,1095.7169812005,1095.7169812005,1095.7169812005,1095.7169812005,1095.7169812005,1.7037037037037,1.69814120046794,ScrollUp,정답,1097.44902500045,1097.44902500045,1097.94868070073,1098.48445290048,NaN,,NaN,NaN,NaN,,,NaN,,,NaN,NaN,NaN,,NaN,NaN,NaN,NaN,NaN,NaN,NaN,34,67,여자,yes,yes,yes,yes,no,2023-06-07_16h14.14.162,Main,2022.2.4,29.9992740888713
3,넌 활발해,1,Orange,B,5.66666666666667,5.6,ScrollUp,ScrollDown,Orange.png,3,Positive,Incongruent,,,NaN,,,NaN,NaN,NaN,NaN,NaN,NaN,NaN,NaN,NaN,NaN,NaN,NaN,0,0,0,0,NaN,NaN,NaN,NaN,NaN,NaN,NaN,NaN,0,0,0,0,NaN,NaN,NaN,NaN,2,0,2,0,0,2,2,2,NaN,NaN,NaN,NaN,NaN,NaN,NaN,NaN,NaN,NaN,NaN,NaN,NaN,NaN,NaN,NaN,NaN,NaN,NaN,NaN,NaN,,NaN,NaN,NaN,NaN,NaN,NaN,NaN,NaN,NaN,NaN,NaN,,,NaN,NaN,NaN,NaN,1098.48445290048,1098.48445290048,1098.48445290048,1098.48445290048,1098.48445290048,1.52006172839506,1.41214540041983,NoResponse,무응답,1099.89882180002,1099.89882180002,1100.39923060033,1100.92932760064,NaN,,NaN,NaN,NaN,,,NaN,,,NaN,NaN,NaN,,NaN,NaN,NaN,NaN,NaN,NaN,NaN,34,67,여자,yes,yes,yes,yes,no,2023-06-07_16h14.14.162,Main,2022.2.4,29.9992740888713
4,넌 논리적이야,2,Green,A,5.66666666666667,4.63333333333333,ScrollDown,ScrollUp,Green.png,3,Positive,Congruent,,,NaN,,,NaN,NaN,NaN,NaN,NaN,NaN,NaN,NaN,NaN,NaN,NaN,NaN,0,0,0,0,NaN,NaN,NaN,NaN,NaN,NaN,NaN,NaN,0,0,0,0,NaN,NaN,NaN,NaN,2,0,2,0,0,3,3,3,NaN,NaN,NaN,NaN,NaN,NaN,NaN,NaN,NaN,NaN,NaN,NaN,NaN,NaN,NaN,NaN,NaN,NaN,NaN,NaN,NaN,,NaN,NaN,NaN,NaN,NaN,NaN,NaN,NaN,NaN,NaN,NaN,,,NaN,NaN,NaN,NaN,1100.92932760064,1100.92932760064,1100.92932760064,1100.92932760064,1100.92932760064,1.25462962962963,1.64737100061029,ScrollDown,정답,1102.58230590075,1102.58230590075,1103.08217930049,1103.5881391,NaN,,NaN,NaN,NaN,,,NaN,,,NaN,NaN,NaN,,NaN,NaN,NaN,NaN,NaN,NaN,NaN,34,67,여자,yes,yes,yes,yes,no,2023-06-07_16h14.14.162,Main,2022.2.4,29.9992740888713
5,넌 과묵해,3,Green,A,3.875,4.4,ScrollDown,ScrollUp,Green.png,3,Neutral,Neutral,,,NaN,,,NaN,NaN,NaN,NaN,NaN,NaN,NaN,NaN,NaN,NaN,NaN,NaN,0,0,0,0,NaN,NaN,NaN,NaN,NaN,NaN,NaN,NaN,0,0,0,0,NaN,NaN,NaN,NaN,2,0,2,0,0,4,4,4,NaN,NaN,NaN,NaN,NaN,NaN,NaN,NaN,NaN,NaN,NaN,NaN,NaN,NaN,NaN,NaN,NaN,NaN,NaN,NaN,NaN,,NaN,NaN,NaN,NaN,NaN,NaN,NaN,NaN,NaN,NaN,NaN,,,NaN,NaN,NaN,NaN,1103.5881391,1103.5881391,1103.5881391,1103.5881391,1103.5881391,1.2962962962963,1.59950410015881,ScrollDown,정답,1105.21564240009,1105.21564240009,1105.71549630072,1106.22432940081,NaN,,NaN,NaN,NaN,,,NaN,,,NaN,NaN,NaN,,NaN,NaN,NaN,NaN,NaN,NaN,NaN,34,67,여자,yes,yes,yes,yes,no,2023-06-07_16h14.14.162,Main,2022.2.4,29.9992740888713
6,나를 데려가줘,6,Orange,B,0,0,ScrollDown,ScrollUp,Orange.png,3,NonTarget,NonTarget,,,NaN,,,NaN,NaN,NaN,NaN,NaN,NaN,NaN,NaN,NaN,NaN,NaN,NaN,0,0,0,0,NaN,NaN,NaN,NaN,NaN,NaN,NaN,NaN,0,0,0,0,NaN,NaN,NaN,NaN,2,0,2,0,0,5,5,5,NaN,NaN,NaN,NaN,NaN,NaN,NaN,NaN,NaN,NaN,NaN,NaN,NaN,NaN,NaN,NaN,NaN,NaN,NaN,NaN,NaN,,NaN,NaN,NaN,NaN,NaN,NaN,NaN,NaN,NaN,NaN,NaN,,,NaN,NaN,NaN,NaN,1106.22432940081,1106.22432940081,1106.22432940081,1106.22432940081,1106.22432940081,1.19907407407407,1.76574820000678,ScrollDown,정답,1108.01565549988,1108.01565549988,1108.51549200062,1109.0161783006,NaN,,NaN,NaN,NaN,,,NaN,,,NaN,NaN,NaN,,NaN,NaN,NaN,NaN,NaN,NaN,NaN,34,67,여자,yes,yes,yes,yes,no,2023-06-07_16h14.14.162,Main,2022.2.4,29.9992740888713
7,넌 미숙해,4,Orange,B,3,3,ScrollUp,ScrollDown,Orange.png,3,Negative,Congruent,,,NaN,,,NaN,NaN,NaN,NaN,NaN,NaN,NaN,NaN,NaN,NaN,NaN,NaN,0,0,0,0,NaN,NaN,NaN,NaN,NaN,NaN,NaN,NaN,0,0,0,0,NaN,NaN,NaN,NaN,2,0,2,0,0,6,6,6,NaN,NaN,NaN,NaN,NaN,NaN,NaN,NaN,NaN,NaN,NaN,NaN,NaN,NaN,NaN,NaN,NaN,NaN,NaN,NaN,NaN,,NaN,NaN,NaN,NaN,NaN,NaN,NaN,NaN,NaN,NaN,NaN,,,NaN,NaN,NaN,NaN,1109.0161783006,1109.0161783006,1109.0161783006,1109.0161783006,1109.0161783006,1.77006172839506,1.26602610014379,ScrollUp,정답,1110.3154989006,1110.3154989006,1110.81565980054,1111.31569819991,NaN,,NaN,NaN,NaN,,,NaN,,,NaN,NaN,NaN,,NaN,NaN,NaN,NaN,NaN,NaN,NaN,34,67,여자,yes,yes,yes,yes,no,2023-06-07_16h14.14.162,Main,2022.2.4,29.9992740888713
8,나를 보내줘,6,Green,A,0,0,ScrollUp,ScrollDown,Green.png,3,NonTarget,NonTarget,,,NaN,,,NaN,NaN,NaN,NaN,NaN,NaN,NaN,NaN,NaN,NaN,NaN,NaN,0,0,0,0,NaN,NaN,NaN,NaN,NaN,NaN,NaN,NaN,0,0,0,0,NaN,NaN,NaN,NaN,2,0,2,0,0,7,7,7,NaN,NaN,NaN,NaN,NaN,NaN,NaN,NaN,NaN,NaN,NaN,NaN,NaN,NaN,NaN,NaN,NaN,NaN,NaN,NaN,NaN,,NaN,NaN,NaN,NaN,NaN,NaN,NaN,NaN,NaN,NaN,NaN,,,NaN,NaN,NaN,NaN,1111.31569819991,1111.31569819991,1111.31569819991,1111.31569819991,1111.31569819991,1.73765432098765,1.73344539944082,ScrollUp,정답,1113.08225610014,1113.08225610014,1113.58235350065,1114.08484800067,NaN,,NaN,NaN,NaN,,,NaN,,,NaN,NaN,NaN,,NaN,NaN,NaN,NaN,NaN,NaN,NaN,34,67,여자,yes,yes,yes,yes,no,2023-06-07_16h14.14.162,Main,2022.2.4,29.9992740888713
9,넌 자신만만해,3,Orange,B,4.83333333333333,4.33333333333333,ScrollUp,ScrollDown,Orange.png,3,Neutral,Neutral,,,NaN,,,NaN,NaN,NaN,NaN,NaN,NaN,NaN,NaN,NaN,NaN,NaN,NaN,0,0,0,0,NaN,NaN,NaN,NaN,NaN,NaN,NaN,NaN,0,0,0,0,NaN,NaN,NaN,NaN,2,0,2,0,0,8,8,8,NaN,NaN,NaN,NaN,NaN,NaN,NaN,NaN,NaN,NaN,NaN,NaN,NaN,NaN,NaN,NaN,NaN,NaN,NaN,NaN,NaN,,NaN,NaN,NaN,NaN,NaN,NaN,NaN,NaN,NaN,NaN,NaN,,,NaN,NaN,NaN,NaN,1114.08484800067,1114.08484800067,1114.08484800067,1114.08484800067,1114.08484800067,1.57716049382716,1.49877579975873,ScrollUp,정답,1115.61564410012,1115.61564410012,1116.11563190073,1116.62404120062,NaN,,NaN,NaN,NaN,,,NaN,,,NaN,NaN,NaN,,NaN,NaN,NaN,NaN,NaN,NaN,NaN,34,67,여자,yes,yes,yes,yes,no,2023-06-07_16h14.14.162,Main,2022.2.4,29.9992740888713
10,넌 탐욕스러워,5,Green,A,2.25,2.1,ScrollDown,ScrollUp,Green.png,3,Negative,Incongruent,,,NaN,,,NaN,NaN,NaN,NaN,NaN,NaN,NaN,NaN,NaN,NaN,NaN,NaN,0,0,0,0,NaN,NaN,NaN,NaN,NaN,NaN,NaN,NaN,0,0,0,0,NaN,NaN,NaN,NaN,2,0,2,0,0,9,9,9,NaN,NaN,NaN,NaN,NaN,NaN,NaN,NaN,NaN,NaN,NaN,NaN,NaN,NaN,NaN,NaN,NaN,NaN,NaN,NaN,NaN,,NaN,NaN,NaN,NaN,NaN,NaN,NaN,NaN,NaN,NaN,NaN,,,NaN,NaN,NaN,NaN,1116.62404120062,1116.62404120062,1116.62404120062,1116.62404120062,1116.62404120062,1.19753086419753,1.59948430024087,ScrollDown,정답,1118.2491220003,1118.2491220003,1118.74898540042,1119.2492270004,NaN,,NaN,NaN,NaN,,,NaN,,,NaN,NaN,NaN,,NaN,NaN,NaN,NaN,NaN,NaN,NaN,34,67,여자,yes,yes,yes,yes,no,2023-06-07_16h14.14.162,Main,2022.2.4,29.9992740888713
11,넌 인기있어,2,Green,A,5.45833333333333,4.5,ScrollDown,ScrollUp,Green.png,3,Positive,Congruent,,,NaN,,,NaN,NaN,NaN,NaN,NaN,NaN,NaN,NaN,NaN,NaN,NaN,NaN,0,0,0,0,NaN,NaN,NaN,NaN,NaN,NaN,NaN,NaN,0,0,0,0,NaN,NaN,NaN,NaN,2,0,2,0,0,10,10,10,NaN,NaN,NaN,NaN,NaN,NaN,NaN,NaN,NaN,NaN,NaN,NaN,NaN,NaN,NaN,NaN,NaN,NaN,NaN,NaN,NaN,,NaN,NaN,NaN,NaN,NaN,NaN,NaN,NaN,NaN,NaN,NaN,,,NaN,NaN,NaN,NaN,1119.2492270004,1119.2492270004,1119.2492270004,1119.2492270004,1119.2492270004,1.20679012345679,1.33386359922588,ScrollDown,정답,1120.61550340056,1120.61550340056,1121.11566750053,1121.61657970026,NaN,,NaN,NaN,NaN,,,NaN,,,NaN,NaN,NaN,,NaN,NaN,NaN,NaN,NaN,NaN,NaN,34,67,여자,yes,yes,yes,yes,no,2023-06-07_16h14.14.162,Main,2022.2.4,29.9992740888713
12,나를 데려가줘,6,Orange,B,0,0,ScrollDown,ScrollUp,Orange.png,3,NonTarget,NonTarget,,,NaN,,,NaN,NaN,NaN,NaN,NaN,NaN,NaN,NaN,NaN,NaN,NaN,NaN,0,0,0,0,NaN,NaN,NaN,NaN,NaN,NaN,NaN,NaN,0,0,0,0,NaN,NaN,NaN,NaN,2,0,2,0,0,11,11,11,NaN,NaN,NaN,NaN,NaN,NaN,NaN,NaN,NaN,NaN,NaN,NaN,NaN,NaN,NaN,NaN,NaN,NaN,NaN,NaN,NaN,,NaN,NaN,NaN,NaN,NaN,NaN,NaN,NaN,NaN,NaN,NaN,,,NaN,NaN,NaN,NaN,1121.61657970026,1121.61657970026,1121.61657970026,1121.61657970026,1121.61657970026,1.28086419753086,2.03300570044667,ScrollDown,정답,1123.68215600029,1123.68215600029,1124.18232370075,1124.68502000067,NaN,,NaN,NaN,NaN,,,NaN,,,NaN,NaN,NaN,,NaN,NaN,NaN,NaN,NaN,NaN,NaN,34,67,여자,yes,yes,yes,yes,no,2023-06-07_16h14.14.162,Main,2022.2.4,29.9992740888713
13,넌 뛰어나,2,Orange,B,6.16666666666667,4,ScrollUp,ScrollDown,Orange.png,3,Positive,Incongruent,,,NaN,,,NaN,NaN,NaN,NaN,NaN,NaN,NaN,NaN,NaN,NaN,NaN,NaN,0,0,0,0,NaN,NaN,NaN,NaN,NaN,NaN,NaN,NaN,0,0,0,0,NaN,NaN,NaN,NaN,2,0,2,0,0,12,12,12,NaN,NaN,NaN,NaN,NaN,NaN,NaN,NaN,NaN,NaN,NaN,NaN,NaN,NaN,NaN,NaN,NaN,NaN,NaN,NaN,NaN,,NaN,NaN,NaN,NaN,NaN,NaN,NaN,NaN,NaN,NaN,NaN,,,NaN,NaN,NaN,NaN,1124.68502000067,1124.68502000067,1124.68502000067,1124.68502000067,1124.68502000067,1.71141975308642,1.33287920057774,ScrollUp,정답,1126.04899710044,1126.04899710044,1126.54899600055,1127.05508180056,NaN,,NaN,NaN,NaN,,,NaN,,,NaN,NaN,NaN,,NaN,NaN,NaN,NaN,NaN,NaN,NaN,34,67,여자,yes,yes,yes,yes,no,2023-06-07_16h14.14.162,Main,2022.2.4,29.9992740888713
14,넌 낙관적이야,1,Green,A,5.75,5.8,ScrollDown,ScrollUp,Green.png,3,Positive,Congruent,,,NaN,,,NaN,NaN,NaN,NaN,NaN,NaN,NaN,NaN,NaN,NaN,NaN,NaN,0,0,0,0,NaN,NaN,NaN,NaN,NaN,NaN,NaN,NaN,0,0,0,0,NaN,NaN,NaN,NaN,2,0,2,0,0,13,13,13,NaN,NaN,NaN,NaN,NaN,NaN,NaN,NaN,NaN,NaN,NaN,NaN,NaN,NaN,NaN,NaN,NaN,NaN,NaN,NaN,NaN,,NaN,NaN,NaN,NaN,NaN,NaN,NaN,NaN,NaN,NaN,NaN,,,NaN,NaN,NaN,NaN,1127.05508180056,1127.05508180056,1127.05508180056,1127.05508180056,1127.05508180056,1.11574074074074,1.46666590031236,ScrollDown,정답,1128.54895910062,1128.54895910062,1129.04902150016,1129.55170670059,NaN,,NaN,NaN,NaN,,,NaN,,,NaN,NaN,NaN,,NaN,NaN,NaN,NaN,NaN,NaN,NaN,34,67,여자,yes,yes,yes,yes,no,2023-06-07_16h14.14.162,Main,2022.2.4,29.9992740888713
15,넌 산만해,4,Orange,B,2.69565217391304,3.03333333333333,ScrollUp,ScrollDown,Orange.png,3,Negative,Congruent,,,NaN,,,NaN,NaN,NaN,NaN,NaN,NaN,NaN,NaN,NaN,NaN,NaN,NaN,0,0,0,0,NaN,NaN,NaN,NaN,NaN,NaN,NaN,NaN,0,0,0,0,NaN,NaN,NaN,NaN,2,0,2,0,0,14,14,14,NaN,NaN,NaN,NaN,NaN,NaN,NaN,NaN,NaN,NaN,NaN,NaN,NaN,NaN,NaN,NaN,NaN,NaN,NaN,NaN,NaN,,NaN,NaN,NaN,NaN,NaN,NaN,NaN,NaN,NaN,NaN,NaN,,,NaN,NaN,NaN,NaN,1129.55170670059,1129.55170670059,1129.55170670059,1129.55170670059,1129.55170670059,1.79012345679012,1.46608029957861,ScrollUp,정답,1131.04900370073,1131.04900370073,1131.54908800032,1132.0508743003,NaN,,NaN,NaN,NaN,,,NaN,,,NaN,NaN,NaN,,NaN,NaN,NaN,NaN,NaN,NaN,NaN,34,67,여자,yes,yes,yes,yes,no,2023-06-07_16h14.14.162,Main,2022.2.4,29.9992740888713
16,나를 보내줘,6,Green,A,0,0,ScrollUp,ScrollDown,Green.png,3,NonTarget,NonTarget,,,NaN,,,NaN,NaN,NaN,NaN,NaN,NaN,NaN,NaN,NaN,NaN,NaN,NaN,0,0,0,0,NaN,NaN,NaN,NaN,NaN,NaN,NaN,NaN,0,0,0,0,NaN,NaN,NaN,NaN,2,0,2,0,0,15,15,15,NaN,NaN,NaN,NaN,NaN,NaN,NaN,NaN,NaN,NaN,NaN,NaN,NaN,NaN,NaN,NaN,NaN,NaN,NaN,NaN,NaN,,NaN,NaN,NaN,NaN,NaN,NaN,NaN,NaN,NaN,NaN,NaN,,,NaN,NaN,NaN,NaN,1132.0508743003,1132.0508743003,1132.0508743003,1132.0508743003,1132.0508743003,1.79475308641975,1.56562959961593,ScrollUp,정답,1133.64901529998,1133.64901529998,1134.14912130032,1134.65536540002,NaN,,NaN,NaN,NaN,,,NaN,,,NaN,NaN,NaN,,NaN,NaN,NaN,NaN,NaN,NaN,NaN,34,67,여자,yes,yes,yes,yes,no,2023-06-07_16h14.14.162,Main,2022.2.4,29.9992740888713
17,넌 교활해,5,Orange,B,2.33333333333333,2.13333333333333,ScrollUp,ScrollDown,Orange.png,3,Negative,Congruent,,,NaN,,,NaN,NaN,NaN,NaN,NaN,NaN,NaN,NaN,NaN,NaN,NaN,NaN,0,0,0,0,NaN,NaN,NaN,NaN,NaN,NaN,NaN,NaN,0,0,0,0,NaN,NaN,NaN,NaN,2,0,2,0,0,16,16,16,NaN,NaN,NaN,NaN,NaN,NaN,NaN,NaN,NaN,NaN,NaN,NaN,NaN,NaN,NaN,NaN,NaN,NaN,NaN,NaN,NaN,,NaN,NaN,NaN,NaN,NaN,NaN,NaN,NaN,NaN,NaN,NaN,,,NaN,NaN,NaN,NaN,1134.65536540002,1134.65536540002,1134.65536540002,1134.65536540002,1134.65536540002,1.58641975308642,1.56641030032188,ScrollUp,정답,1136.24900790025,1136.24900790025,1136.74901110027,1137.25789070036,NaN,,NaN,NaN,NaN,,,NaN,,,NaN,NaN,NaN,,NaN,NaN,NaN,NaN,NaN,NaN,NaN,34,67,여자,yes,yes,yes,yes,no,2023-06-07_16h14.14.162,Main,2022.2.4,29.9992740888713
18,나를 보내줘,6,Green,A,0,0,ScrollUp,ScrollDown,Green.png,3,NonTarget,NonTarget,,,NaN,,,NaN,NaN,NaN,NaN,NaN,NaN,NaN,NaN,NaN,NaN,NaN,NaN,0,0,0,0,NaN,NaN,NaN,NaN,NaN,NaN,NaN,NaN,0,0,0,0,NaN,NaN,NaN,NaN,2,0,2,0,0,17,17,17,NaN,NaN,NaN,NaN,NaN,NaN,NaN,NaN,NaN,NaN,NaN,NaN,NaN,NaN,NaN,NaN,NaN,NaN,NaN,NaN,NaN,,NaN,NaN,NaN,NaN,NaN,NaN,NaN,NaN,NaN,NaN,NaN,,,NaN,NaN,NaN,NaN,1137.25789070036,1137.25789070036,1137.25789070036,1137.25789070036,1137.25789070036,1.6141975308642,1.39991579949856,ScrollUp,정답,1138.68221980054,1138.68221980054,1139.18240030017,1139.68482330069,NaN,,NaN,NaN,NaN,,,NaN,,,NaN,NaN,NaN,,NaN,NaN,NaN,NaN,NaN,NaN,NaN,34,67,여자,yes,yes,yes,yes,no,2023-06-07_16h14.14.162,Main,2022.2.4,29.9992740888713
19,넌 불친절해,5,Orange,B,2.20833333333333,2.03333333333333,ScrollUp,ScrollDown,Orange.png,3,Negative,Congruent,,,NaN,,,NaN,NaN,NaN,NaN,NaN,NaN,NaN,NaN,NaN,NaN,NaN,NaN,0,0,0,0,NaN,NaN,NaN,NaN,NaN,NaN,NaN,NaN,0,0,0,0,NaN,NaN,NaN,NaN,2,0,2,0,0,18,18,18,NaN,NaN,NaN,NaN,NaN,NaN,NaN,NaN,NaN,NaN,NaN,NaN,NaN,NaN,NaN,NaN,NaN,NaN,NaN,NaN,NaN,,NaN,NaN,NaN,NaN,NaN,NaN,NaN,NaN,NaN,NaN,NaN,,,NaN,NaN,NaN,NaN,1139.68482330069,1139.68482330069,1139.68482330069,1139.68482330069,1139.68482330069,1.6820987654321,1.36574950069189,ScrollUp,정답,1141.08230230026,1141.08230230026,1141.5823444007,1142.08232829999,NaN,,NaN,NaN,NaN,,,NaN,,,NaN,NaN,NaN,,NaN,NaN,NaN,NaN,NaN,NaN,NaN,34,67,여자,yes,yes,yes,yes,no,2023-06-07_16h14.14.162,Main,2022.2.4,29.9992740888713
20,넌 지적이야,2,Orange,B,5.75,4.36666666666667,ScrollUp,ScrollDown,Orange.png,3,Positive,Incongruent,,,NaN,,,NaN,NaN,NaN,NaN,NaN,NaN,NaN,NaN,NaN,NaN,NaN,NaN,0,0,0,0,NaN,NaN,NaN,NaN,NaN,NaN,NaN,NaN,0,0,0,0,NaN,NaN,NaN,NaN,2,0,2,0,0,19,19,19,NaN,NaN,NaN,NaN,NaN,NaN,NaN,NaN,NaN,NaN,NaN,NaN,NaN,NaN,NaN,NaN,NaN,NaN,NaN,NaN,NaN,,NaN,NaN,NaN,NaN,NaN,NaN,NaN,NaN,NaN,NaN,NaN,,,NaN,NaN,NaN,NaN,1142.08232829999,1142.08232829999,1142.08232829999,1142.08232829999,1142.08232829999,1.65586419753086,1.29988169949502,ScrollUp,정답,1143.41569990013,1143.41569990013,1143.91573990043,1144.42191180028,NaN,,NaN,NaN,NaN,,,NaN,,,NaN,NaN,NaN,,NaN,NaN,NaN,NaN,NaN,NaN,NaN,34,67,여자,yes,yes,yes,yes,no,2023-06-07_16h14.14.162,Main,2022.2.4,29.9992740888713
21,넌 우유부단해,4,Green,A,2.66666666666667,3.16666666666667,ScrollDown,ScrollUp,Green.png,3,Negative,Incongruent,,,NaN,,,NaN,NaN,NaN,NaN,NaN,NaN,NaN,NaN,NaN,NaN,NaN,NaN,0,0,0,0,NaN,NaN,NaN,NaN,NaN,NaN,NaN,NaN,0,0,0,0,NaN,NaN,NaN,NaN,2,0,2,0,0,20,20,20,NaN,NaN,NaN,NaN,NaN,NaN,NaN,NaN,NaN,NaN,NaN,NaN,NaN,NaN,NaN,NaN,NaN,NaN,NaN,NaN,NaN,,NaN,NaN,NaN,NaN,NaN,NaN,NaN,NaN,NaN,NaN,NaN,,,NaN,NaN,NaN,NaN,1144.42191180028,1144.42191180028,1144.42191180028,1144.42191180028,1144.42191180028,1.35802469135802,1.86878089979291,ScrollDown,정답,1146.31569750048,1146.31569750048,1146.81566710025,1147.31597850006,NaN,,NaN,NaN,NaN,,,NaN,,,NaN,NaN,NaN,,NaN,NaN,NaN,NaN,NaN,NaN,NaN,34,67,여자,yes,yes,yes,yes,no,2023-06-07_16h14.14.162,Main,2022.2.4,29.9992740888713
22,나를 데려가줘,6,Orange,B,0,0,ScrollDown,ScrollUp,Orange.png,3,NonTarget,NonTarget,,,NaN,,,NaN,NaN,NaN,NaN,NaN,NaN,NaN,NaN,NaN,NaN,NaN,NaN,0,0,0,0,NaN,NaN,NaN,NaN,NaN,NaN,NaN,NaN,0,0,0,0,NaN,NaN,NaN,NaN,2,0,2,0,0,21,21,21,NaN,NaN,NaN,NaN,NaN,NaN,NaN,NaN,NaN,NaN,NaN,NaN,NaN,NaN,NaN,NaN,NaN,NaN,NaN,NaN,NaN,,NaN,NaN,NaN,NaN,NaN,NaN,NaN,NaN,NaN,NaN,NaN,,,NaN,NaN,NaN,NaN,1147.31597850006,1147.31597850006,1147.31597850006,1147.31597850006,1147.31597850006,1.12037037037037,1.63273399975151,ScrollDown,정답,1148.98232580069,1148.98232580069,1149.48246040009,1149.98577000014,NaN,,NaN,NaN,NaN,,,NaN,,,NaN,NaN,NaN,,NaN,NaN,NaN,NaN,NaN,NaN,NaN,34,67,여자,yes,yes,yes,yes,no,2023-06-07_16h14.14.162,Main,2022.2.4,29.9992740888713
23,넌 성실해,1,Orange,B,6.04166666666667,5.7,ScrollUp,ScrollDown,Orange.png,3,Positive,Incongruent,,,NaN,,,NaN,NaN,NaN,NaN,NaN,NaN,NaN,NaN,NaN,NaN,NaN,NaN,0,0,0,0,NaN,NaN,NaN,NaN,NaN,NaN,NaN,NaN,0,0,0,0,NaN,NaN,NaN,NaN,2,0,2,0,0,22,22,22,NaN,NaN,NaN,NaN,NaN,NaN,NaN,NaN,NaN,NaN,NaN,NaN,NaN,NaN,NaN,NaN,NaN,NaN,NaN,NaN,NaN,,NaN,NaN,NaN,NaN,NaN,NaN,NaN,NaN,NaN,NaN,NaN,,,NaN,NaN,NaN,NaN,1149.98577000014,1149.98577000014,1149.98577000014,1149.98577000014,1149.98577000014,1.6033950617284,1.39904430042952,ScrollUp,정답,1151.41550960019,1151.41550960019,1151.91582490038,1152.43211790081,NaN,,NaN,NaN,NaN,,,NaN,,,NaN,NaN,NaN,,NaN,NaN,NaN,NaN,NaN,NaN,NaN,34,67,여자,yes,yes,yes,yes,no,2023-06-07_16h14.14.162,Main,2022.2.4,29.9992740888713
24,넌 현실주의적이야,3,Green,A,4.625,4.4,ScrollDown,ScrollUp,Green.png,3,Neutral,Neutral,,,NaN,,,NaN,NaN,NaN,NaN,NaN,NaN,NaN,NaN,NaN,NaN,NaN,NaN,0,0,0,0,NaN,NaN,NaN,NaN,NaN,NaN,NaN,NaN,0,0,0,0,NaN,NaN,NaN,NaN,2,0,2,0,0,23,23,23,NaN,NaN,NaN,NaN,NaN,NaN,NaN,NaN,NaN,NaN,NaN,NaN,NaN,NaN,NaN,NaN,NaN,NaN,NaN,NaN,NaN,,NaN,NaN,NaN,NaN,NaN,NaN,NaN,NaN,NaN,NaN,NaN,,,NaN,NaN,NaN,NaN,1152.43211790081,1152.43211790081,1152.43211790081,1152.43211790081,1152.43211790081,1.1712962962963,1.56580780074,ScrollDown,정답,1154.01573350001,1154.01573350001,1154.51570910029,1155.01568080019,NaN,,NaN,NaN,NaN,,,NaN,,,NaN,NaN,NaN,,NaN,NaN,NaN,NaN,NaN,NaN,NaN,34,67,여자,yes,yes,yes,yes,no,2023-06-07_16h14.14.162,Main,2022.2.4,29.9992740888713
25,넌 진실돼,1,Green,A,6.625,5.56666666666667,ScrollDown,ScrollUp,Green.png,3,Positive,Congruent,,,NaN,,,NaN,NaN,NaN,NaN,NaN,NaN,NaN,NaN,NaN,NaN,NaN,NaN,0,0,0,0,NaN,NaN,NaN,NaN,NaN,NaN,NaN,NaN,0,0,0,0,NaN,NaN,NaN,NaN,2,0,2,0,0,24,24,24,NaN,NaN,NaN,NaN,NaN,NaN,NaN,NaN,NaN,NaN,NaN,NaN,NaN,NaN,NaN,NaN,NaN,NaN,NaN,NaN,NaN,,NaN,NaN,NaN,NaN,NaN,NaN,NaN,NaN,NaN,NaN,NaN,,,NaN,NaN,NaN,NaN,1155.01568080019,1155.01568080019,1155.01568080019,1155.01568080019,1155.01568080019,1.14969135802469,1.23326209932566,ScrollDown,정답,1156.28222030029,1156.28222030029,1156.78246700019,1157.28819330037,NaN,,NaN,NaN,NaN,,,NaN,,,NaN,NaN,NaN,,NaN,NaN,NaN,NaN,NaN,NaN,NaN,34,67,여자,yes,yes,yes,yes,no,2023-06-07_16h14.14.162,Main,2022.2.4,29.9992740888713
26,넌 천진난만해,3,Orange,B,4.95833333333333,4.83333333333333,ScrollUp,ScrollDown,Orange.png,3,Neutral,Neutral,,,NaN,,,NaN,NaN,NaN,NaN,NaN,NaN,NaN,NaN,NaN,NaN,NaN,NaN,0,0,0,0,NaN,NaN,NaN,NaN,NaN,NaN,NaN,NaN,0,0,0,0,NaN,NaN,NaN,NaN,2,0,2,0,0,25,25,25,NaN,NaN,NaN,NaN,NaN,NaN,NaN,NaN,NaN,NaN,NaN,NaN,NaN,NaN,NaN,NaN,NaN,NaN,NaN,NaN,NaN,,NaN,NaN,NaN,NaN,NaN,NaN,NaN,NaN,NaN,NaN,NaN,,,NaN,NaN,NaN,NaN,1157.28819330037,1157.28819330037,1157.28819330037,1157.28819330037,1157.28819330037,1.81018518518519,1.29946120083332,ScrollUp,정답,1158.61569420062,1158.61569420062,1159.11553260032,1159.61539590079,NaN,,NaN,NaN,NaN,,,NaN,,,NaN,NaN,NaN,,NaN,NaN,NaN,NaN,NaN,NaN,NaN,34,67,여자,yes,yes,yes,yes,no,2023-06-07_16h14.14.162,Main,2022.2.4,29.9992740888713
27,넌 교양없어,5,Green,A,2.41666666666667,2.2,ScrollDown,ScrollUp,Green.png,3,Negative,Incongruent,,,NaN,,,NaN,NaN,NaN,NaN,NaN,NaN,NaN,NaN,NaN,NaN,NaN,NaN,0,0,0,0,NaN,NaN,NaN,NaN,NaN,NaN,NaN,NaN,0,0,0,0,NaN,NaN,NaN,NaN,2,0,2,0,0,26,26,26,NaN,NaN,NaN,NaN,NaN,NaN,NaN,NaN,NaN,NaN,NaN,NaN,NaN,NaN,NaN,NaN,NaN,NaN,NaN,NaN,NaN,,NaN,NaN,NaN,NaN,NaN,NaN,NaN,NaN,NaN,NaN,NaN,,,NaN,NaN,NaN,NaN,1159.61539590079,1159.61539590079,1159.61539590079,1159.61539590079,1159.61539590079,1.75,1.20593699999154,ScrollUp,오답,1160.84903350007,1160.84903350007,1161.34901749995,1161.84897190053,NaN,,NaN,NaN,NaN,,,NaN,,,NaN,NaN,NaN,,NaN,NaN,NaN,NaN,NaN,NaN,NaN,34,67,여자,yes,yes,yes,yes,no,2023-06-07_16h14.14.162,Main,2022.2.4,29.9992740888713
28,나를 보내줘,6,Green,A,0,0,ScrollUp,ScrollDown,Green.png,3,NonTarget,NonTarget,,,NaN,,,NaN,NaN,NaN,NaN,NaN,NaN,NaN,NaN,NaN,NaN,NaN,NaN,0,0,0,0,NaN,NaN,NaN,NaN,NaN,NaN,NaN,NaN,0,0,0,0,NaN,NaN,NaN,NaN,2,0,2,0,0,27,27,27,NaN,NaN,NaN,NaN,NaN,NaN,NaN,NaN,NaN,NaN,NaN,NaN,NaN,NaN,NaN,NaN,NaN,NaN,NaN,NaN,NaN,,NaN,NaN,NaN,NaN,NaN,NaN,NaN,NaN,NaN,NaN,NaN,,,NaN,NaN,NaN,NaN,1161.84897190053,1161.84897190053,1161.84897190053,1161.84897190053,1161.84897190053,1.72222222222222,1.56710720062256,ScrollUp,정답,1163.44902050029,1163.44902050029,1163.94904999994,1164.44900700077,NaN,,NaN,NaN,NaN,,,NaN,,,NaN,NaN,NaN,,NaN,NaN,NaN,NaN,NaN,NaN,NaN,34,67,여자,yes,yes,yes,yes,no,2023-06-07_16h14.14.162,Main,2022.2.4,29.9992740888713
29,넌 엉뚱스러워,3,Green,A,4.16666666666667,4.13333333333333,ScrollDown,ScrollUp,Green.png,3,Neutral,Neutral,,,NaN,,,NaN,NaN,NaN,NaN,NaN,NaN,NaN,NaN,NaN,NaN,NaN,NaN,0,0,0,0,NaN,NaN,NaN,NaN,NaN,NaN,NaN,NaN,0,0,0,0,NaN,NaN,NaN,NaN,2,0,2,0,0,28,28,28,NaN,NaN,NaN,NaN,NaN,NaN,NaN,NaN,NaN,NaN,NaN,NaN,NaN,NaN,NaN,NaN,NaN,NaN,NaN,NaN,NaN,,NaN,NaN,NaN,NaN,NaN,NaN,NaN,NaN,NaN,NaN,NaN,,,NaN,NaN,NaN,NaN,1164.44900700077,1164.44900700077,1164.44900700077,1164.44900700077,1164.44900700077,1.31172839506173,1.33325770031661,ScrollDown,정답,1165.81606870051,1165.81606870051,1166.31566650048,1166.81532040052,NaN,,NaN,NaN,NaN,,,NaN,,,NaN,NaN,NaN,,NaN,NaN,NaN,NaN,NaN,NaN,NaN,34,67,여자,yes,yes,yes,yes,no,2023-06-07_16h14.14.162,Main,2022.2.4,29.9992740888713
30,넌 무지해,4,Orange,B,2.54166666666667,3.06666666666667,ScrollUp,ScrollDown,Orange.png,3,Negative,Congruent,,,NaN,,,NaN,NaN,NaN,NaN,NaN,NaN,NaN,NaN,NaN,NaN,NaN,NaN,0,0,0,0,NaN,NaN,NaN,NaN,NaN,NaN,NaN,NaN,0,0,0,0,NaN,NaN,NaN,NaN,2,0,2,0,0,29,29,29,NaN,NaN,NaN,NaN,NaN,NaN,NaN,NaN,NaN,NaN,NaN,NaN,NaN,NaN,NaN,NaN,NaN,NaN,NaN,NaN,NaN,,NaN,NaN,NaN,NaN,NaN,NaN,NaN,NaN,NaN,NaN,NaN,,,NaN,NaN,NaN,NaN,1166.81532040052,1166.81532040052,1166.81532040052,1166.81532040052,1166.81532040052,1.61882716049383,1.29975290037692,ScrollUp,정답,1168.1491306005,1168.1491306005,1168.64915399998,1169.14879530016,NaN,,NaN,NaN,NaN,,,NaN,,,NaN,NaN,NaN,,NaN,NaN,NaN,NaN,NaN,NaN,NaN,34,67,여자,yes,yes,yes,yes,no,2023-06-07_16h14.14.162,Main,2022.2.4,29.9992740888713
31,넌 음울해,5,Orange,B,2.25,2.23333333333333,ScrollUp,ScrollDown,Orange.png,3,Negative,Congruent,,,NaN,,,NaN,NaN,NaN,NaN,NaN,NaN,NaN,NaN,NaN,NaN,NaN,NaN,0,0,0,0,NaN,NaN,NaN,NaN,NaN,NaN,NaN,NaN,0,0,0,0,NaN,NaN,NaN,NaN,2,0,2,0,0,30,30,30,NaN,NaN,NaN,NaN,NaN,NaN,NaN,NaN,NaN,NaN,NaN,NaN,NaN,NaN,NaN,NaN,NaN,NaN,NaN,NaN,NaN,,NaN,NaN,NaN,NaN,NaN,NaN,NaN,NaN,NaN,NaN,NaN,,,NaN,NaN,NaN,NaN,1169.14879530016,1169.14879530016,1169.14879530016,1169.14879530016,1169.14879530016,1.68364197530864,1.23814009968191,ScrollUp,정답,1170.41591970064,1170.41591970064,1170.91549010016,1171.42244980019,NaN,,NaN,NaN,NaN,,,NaN,,,NaN,NaN,NaN,,NaN,NaN,NaN,NaN,NaN,NaN,NaN,34,67,여자,yes,yes,yes,yes,no,2023-06-07_16h14.14.162,Main,2022.2.4,29.9992740888713
32,넌 냉소적이야,5,Green,A,2.91666666666667,2.4,ScrollDown,ScrollUp,Green.png,3,Negative,Incongruent,,,NaN,,,NaN,NaN,NaN,NaN,NaN,NaN,NaN,NaN,NaN,NaN,NaN,NaN,0,0,0,0,NaN,NaN,NaN,NaN,NaN,NaN,NaN,NaN,0,0,0,0,NaN,NaN,NaN,NaN,2,0,2,0,0,31,31,31,NaN,NaN,NaN,NaN,NaN,NaN,NaN,NaN,NaN,NaN,NaN,NaN,NaN,NaN,NaN,NaN,NaN,NaN,NaN,NaN,NaN,,NaN,NaN,NaN,NaN,NaN,NaN,NaN,NaN,NaN,NaN,NaN,,,NaN,NaN,NaN,NaN,1171.42244980019,1171.42244980019,1171.42244980019,1171.42244980019,1171.42244980019,1.25308641975309,1.73157589975744,ScrollDown,정답,1173.18239880074,1173.18239880074,1173.6822240008,1174.18327110074,NaN,,NaN,NaN,NaN,,,NaN,,,NaN,NaN,NaN,,NaN,NaN,NaN,NaN,NaN,NaN,NaN,34,67,여자,yes,yes,yes,yes,no,2023-06-07_16h14.14.162,Main,2022.2.4,29.9992740888713
33,나를 데려가줘,6,Orange,B,0,0,ScrollDown,ScrollUp,Orange.png,3,NonTarget,NonTarget,,,NaN,,,NaN,NaN,NaN,NaN,NaN,NaN,NaN,NaN,NaN,NaN,NaN,NaN,0,0,0,0,NaN,NaN,NaN,NaN,NaN,NaN,NaN,NaN,0,0,0,0,NaN,NaN,NaN,NaN,2,0,2,0,0,32,32,32,NaN,NaN,NaN,NaN,NaN,NaN,NaN,NaN,NaN,NaN,NaN,NaN,NaN,NaN,NaN,NaN,NaN,NaN,NaN,NaN,NaN,,NaN,NaN,NaN,NaN,NaN,NaN,NaN,NaN,NaN,NaN,NaN,,,NaN,NaN,NaN,NaN,1174.18327110074,1174.18327110074,1174.18327110074,1174.18327110074,1174.18327110074,1.13734567901235,1.53343369998038,ScrollDown,정답,1175.74905140046,1175.74905140046,1176.24905160069,1176.75432220008,NaN,,NaN,NaN,NaN,,,NaN,,,NaN,NaN,NaN,,NaN,NaN,NaN,NaN,NaN,NaN,NaN,34,67,여자,yes,yes,yes,yes,no,2023-06-07_16h14.14.162,Main,2022.2.4,29.9992740888713
34,넌 쾌활해,1,Green,A,5.54166666666667,5.73333333333333,ScrollDown,ScrollUp,Green.png,3,Positive,Congruent,,,NaN,,,NaN,NaN,NaN,NaN,NaN,NaN,NaN,NaN,NaN,NaN,NaN,NaN,0,0,0,0,NaN,NaN,NaN,NaN,NaN,NaN,NaN,NaN,0,0,0,0,NaN,NaN,NaN,NaN,2,0,2,0,0,33,33,33,NaN,NaN,NaN,NaN,NaN,NaN,NaN,NaN,NaN,NaN,NaN,NaN,NaN,NaN,NaN,NaN,NaN,NaN,NaN,NaN,NaN,,NaN,NaN,NaN,NaN,NaN,NaN,NaN,NaN,NaN,NaN,NaN,,,NaN,NaN,NaN,NaN,1176.75432220008,1176.75432220008,1176.75432220008,1176.75432220008,1176.75432220008,1.31172839506173,1.53301510028541,ScrollDown,정답,1178.31570459995,1178.31570459995,1178.81577280071,1179.31578280032,NaN,,NaN,NaN,NaN,,,NaN,,,NaN,NaN,NaN,,NaN,NaN,NaN,NaN,NaN,NaN,NaN,34,67,여자,yes,yes,yes,yes,no,2023-06-07_16h14.14.162,Main,2022.2.4,29.9992740888713
35,나를 보내줘,6,Green,A,0,0,ScrollUp,ScrollDown,Green.png,3,NonTarget,NonTarget,,,NaN,,,NaN,NaN,NaN,NaN,NaN,NaN,NaN,NaN,NaN,NaN,NaN,NaN,0,0,0,0,NaN,NaN,NaN,NaN,NaN,NaN,NaN,NaN,0,0,0,0,NaN,NaN,NaN,NaN,2,0,2,0,0,34,34,34,NaN,NaN,NaN,NaN,NaN,NaN,NaN,NaN,NaN,NaN,NaN,NaN,NaN,NaN,NaN,NaN,NaN,NaN,NaN,NaN,NaN,,NaN,NaN,NaN,NaN,NaN,NaN,NaN,NaN,NaN,NaN,NaN,,,NaN,NaN,NaN,NaN,1179.31578280032,1179.31578280032,1179.31578280032,1179.31578280032,1179.31578280032,1.54783950617284,1.39939669985324,NoResponse,무응답,1180.74925119989,1180.74925119989,1181.24903170019,1181.75135220028,NaN,,NaN,NaN,NaN,,,NaN,,,NaN,NaN,NaN,,NaN,NaN,NaN,NaN,NaN,NaN,NaN,34,67,여자,yes,yes,yes,yes,no,2023-06-07_16h14.14.162,Main,2022.2.4,29.9992740888713
36,넌 명랑해,1,Orange,B,5.73913043478261,5.66666666666667,ScrollUp,ScrollDown,Orange.png,3,Positive,Incongruent,,,NaN,,,NaN,NaN,NaN,NaN,NaN,NaN,NaN,NaN,NaN,NaN,NaN,NaN,0,0,0,0,NaN,NaN,NaN,NaN,NaN,NaN,NaN,NaN,0,0,0,0,NaN,NaN,NaN,NaN,2,0,2,0,0,35,35,35,NaN,NaN,NaN,NaN,NaN,NaN,NaN,NaN,NaN,NaN,NaN,NaN,NaN,NaN,NaN,NaN,NaN,NaN,NaN,NaN,NaN,,NaN,NaN,NaN,NaN,NaN,NaN,NaN,NaN,NaN,NaN,NaN,,,NaN,NaN,NaN,NaN,1181.75135220028,1181.75135220028,1181.75135220028,1181.75135220028,1181.75135220028,1.75771604938272,1.93237709999084,ScrollUp,정답,1183.71571990009,1183.71571990009,1184.21569930017,1184.71707200073,NaN,,NaN,NaN,NaN,,,NaN,,,NaN,NaN,NaN,,NaN,NaN,NaN,NaN,NaN,NaN,NaN,34,67,여자,yes,yes,yes,yes,no,2023-06-07_16h14.14.162,Main,2022.2.4,29.9992740888713
37,넌 멍해,4,Green,A,2.83333333333333,3.4,ScrollDown,ScrollUp,Green.png,3,Negative,Incongruent,,,NaN,,,NaN,NaN,NaN,NaN,NaN,NaN,NaN,NaN,NaN,NaN,NaN,NaN,0,0,0,0,NaN,NaN,NaN,NaN,NaN,NaN,NaN,NaN,0,0,0,0,NaN,NaN,NaN,NaN,2,0,2,0,0,36,36,36,NaN,NaN,NaN,NaN,NaN,NaN,NaN,NaN,NaN,NaN,NaN,NaN,NaN,NaN,NaN,NaN,NaN,NaN,NaN,NaN,NaN,,NaN,NaN,NaN,NaN,NaN,NaN,NaN,NaN,NaN,NaN,NaN,,,NaN,NaN,NaN,NaN,1184.71707200073,1184.71707200073,1184.71707200073,1184.71707200073,1184.71707200073,1.07561728395062,1.99880069959909,ScrollDown,정답,1186.74903570022,1186.74903570022,1187.24907970056,1187.75186480023,NaN,,NaN,NaN,NaN,,,NaN,,,NaN,NaN,NaN,,NaN,NaN,NaN,NaN,NaN,NaN,NaN,34,67,여자,yes,yes,yes,yes,no,2023-06-07_16h14.14.162,Main,2022.2.4,29.9992740888713
38,나를 데려가줘,6,Orange,B,0,0,ScrollDown,ScrollUp,Orange.png,3,NonTarget,NonTarget,,,NaN,,,NaN,NaN,NaN,NaN,NaN,NaN,NaN,NaN,NaN,NaN,NaN,NaN,0,0,0,0,NaN,NaN,NaN,NaN,NaN,NaN,NaN,NaN,0,0,0,0,NaN,NaN,NaN,NaN,2,0,2,0,0,37,37,37,NaN,NaN,NaN,NaN,NaN,NaN,NaN,NaN,NaN,NaN,NaN,NaN,NaN,NaN,NaN,NaN,NaN,NaN,NaN,NaN,NaN,,NaN,NaN,NaN,NaN,NaN,NaN,NaN,NaN,NaN,NaN,NaN,,,NaN,NaN,NaN,NaN,1187.75186480023,1187.75186480023,1187.75186480023,1187.75186480023,1187.75186480023,1.0216049382716,1.59983500000089,ScrollDown,정답,1189.3823874006,1189.3823874006,1189.88227100018,1190.39100440033,NaN,,NaN,NaN,NaN,,,NaN,,,NaN,NaN,NaN,,NaN,NaN,NaN,NaN,NaN,NaN,NaN,34,67,여자,yes,yes,yes,yes,no,2023-06-07_16h14.14.162,Main,2022.2.4,29.9992740888713
39,넌 현명해,2,Green,A,6.54166666666667,4.53333333333333,ScrollDown,ScrollUp,Green.png,3,Positive,Congruent,,,NaN,,,NaN,NaN,NaN,NaN,NaN,NaN,NaN,NaN,NaN,NaN,NaN,NaN,0,0,0,0,NaN,NaN,NaN,NaN,NaN,NaN,NaN,NaN,0,0,0,0,NaN,NaN,NaN,NaN,2,0,2,0,0,38,38,38,NaN,NaN,NaN,NaN,NaN,NaN,NaN,NaN,NaN,NaN,NaN,NaN,NaN,NaN,NaN,NaN,NaN,NaN,NaN,NaN,NaN,,NaN,NaN,NaN,NaN,NaN,NaN,NaN,NaN,NaN,NaN,NaN,,,NaN,NaN,NaN,NaN,1190.39100440033,1190.39100440033,1190.39100440033,1190.39100440033,1190.39100440033,1.17746913580247,1.43272030074149,ScrollDown,정답,1191.84913620073,1191.84913620073,1192.34895960055,1192.85158260074,NaN,,NaN,NaN,NaN,,,NaN,,,NaN,NaN,NaN,,NaN,NaN,NaN,NaN,NaN,NaN,NaN,34,67,여자,yes,yes,yes,yes,no,2023-06-07_16h14.14.162,Main,2022.2.4,29.9992740888713
40,넌 수줍어,3,Orange,B,3.54166666666667,4.36666666666667,ScrollUp,ScrollDown,Orange.png,3,Neutral,Neutral,,,NaN,,,NaN,NaN,NaN,NaN,NaN,NaN,NaN,NaN,NaN,NaN,NaN,NaN,0,0,0,0,NaN,NaN,NaN,NaN,NaN,NaN,NaN,NaN,0,0,0,0,NaN,NaN,NaN,NaN,2,0,2,0,0,39,39,39,NaN,NaN,NaN,NaN,NaN,NaN,NaN,NaN,NaN,NaN,NaN,NaN,NaN,NaN,NaN,NaN,NaN,NaN,NaN,NaN,NaN,,NaN,NaN,NaN,NaN,NaN,NaN,NaN,NaN,NaN,NaN,NaN,,,NaN,NaN,NaN,NaN,1192.85158260074,1192.85158260074,1192.85158260074,1192.85158260074,1192.85158260074,1.68672839506173,1.46674029994756,ScrollUp,정답,1194.34908349998,1194.34908349998,1194.84916470014,1195.34902780037,NaN,,NaN,NaN,NaN,,,NaN,,,NaN,NaN,NaN,,NaN,NaN,NaN,NaN,NaN,NaN,NaN,34,67,여자,yes,yes,yes,yes,no,2023-06-07_16h14.14.162,Main,2022.2.4,29.9992740888713
41,나를 데려가줘,6,Orange,B,0,0,ScrollDown,ScrollUp,Orange.png,3,NonTarget,NonTarget,,,NaN,,,NaN,NaN,NaN,NaN,NaN,NaN,NaN,NaN,NaN,NaN,NaN,NaN,0,0,0,0,NaN,NaN,NaN,NaN,NaN,NaN,NaN,NaN,0,0,0,0,NaN,NaN,NaN,NaN,2,0,2,0,0,40,40,40,NaN,NaN,NaN,NaN,NaN,NaN,NaN,NaN,NaN,NaN,NaN,NaN,NaN,NaN,NaN,NaN,NaN,NaN,NaN,NaN,NaN,,NaN,NaN,NaN,NaN,NaN,NaN,NaN,NaN,NaN,NaN,NaN,,,NaN,NaN,NaN,NaN,1195.34902780037,1195.34902780037,1195.34902780037,1195.34902780037,1195.34902780037,1.16203703703704,1.59963699989021,ScrollDown,정답,1196.98223200068,1196.98223200068,1197.48253860045,1197.98216790054,NaN,,NaN,NaN,NaN,,,NaN,,,NaN,NaN,NaN,,NaN,NaN,NaN,NaN,NaN,NaN,NaN,34,67,여자,yes,yes,yes,yes,no,2023-06-07_16h14.14.162,Main,2022.2.4,29.9992740888713
42,넌 성숙해,2,Orange,B,5.83333333333333,4.53333333333333,ScrollUp,ScrollDown,Orange.png,3,Positive,Incongruent,,,NaN,,,NaN,NaN,NaN,NaN,NaN,NaN,NaN,NaN,NaN,NaN,NaN,NaN,0,0,0,0,NaN,NaN,NaN,NaN,NaN,NaN,NaN,NaN,0,0,0,0,NaN,NaN,NaN,NaN,2,0,2,0,0,41,41,41,NaN,NaN,NaN,NaN,NaN,NaN,NaN,NaN,NaN,NaN,NaN,NaN,NaN,NaN,NaN,NaN,NaN,NaN,NaN,NaN,NaN,,NaN,NaN,NaN,NaN,NaN,NaN,NaN,NaN,NaN,NaN,NaN,,,NaN,NaN,NaN,NaN,1197.98216790054,1197.98216790054,1197.98216790054,1197.98216790054,1197.98216790054,1.60956790123457,1.86618230026215,ScrollUp,정답,1199.88239300065,1199.88239300065,1200.38243760075,1200.88270060066,NaN,,NaN,NaN,NaN,,,NaN,,,NaN,NaN,NaN,,NaN,NaN,NaN,NaN,NaN,NaN,NaN,34,67,여자,yes,yes,yes,yes,no,2023-06-07_16h14.14.162,Main,2022.2.4,29.9992740888713
NaN,,NaN,,,NaN,NaN,,,,NaN,,,,,NaN,,,NaN,NaN,NaN,NaN,NaN,NaN,NaN,NaN,NaN,NaN,NaN,NaN,0,0,0,0,NaN,NaN,NaN,NaN,NaN,NaN,NaN,NaN,0,0,0,0,NaN,NaN,NaN,NaN,2,0,2,0,NaN,NaN,NaN,NaN,NaN,NaN,NaN,NaN,NaN,NaN,NaN,NaN,NaN,NaN,NaN,NaN,NaN,NaN,NaN,NaN,NaN,NaN,NaN,NaN,NaN,,NaN,NaN,NaN,NaN,NaN,NaN,NaN,NaN,NaN,NaN,NaN,,,NaN,NaN,NaN,NaN,NaN,NaN,NaN,NaN,NaN,NaN,NaN,,,NaN,NaN,NaN,NaN,4,,NaN,NaN,NaN,,,NaN,,,NaN,NaN,NaN,,NaN,NaN,NaN,NaN,NaN,NaN,NaN,34,67,여자,yes,yes,yes,yes,no,2023-06-07_16h14.14.162,Main,2022.2.4,29.9992740888713
NaN,,NaN,,,NaN,NaN,,,,NaN,,,,,NaN,,,NaN,NaN,NaN,NaN,NaN,NaN,NaN,NaN,NaN,NaN,NaN,NaN,0,0,0,0,NaN,NaN,NaN,NaN,NaN,NaN,NaN,NaN,0,0,0,0,NaN,NaN,NaN,NaN,NaN,NaN,NaN,NaN,NaN,NaN,NaN,NaN,NaN,NaN,NaN,NaN,NaN,NaN,NaN,NaN,NaN,NaN,NaN,NaN,NaN,NaN,NaN,NaN,NaN,NaN,NaN,NaN,NaN,,NaN,NaN,NaN,NaN,NaN,NaN,NaN,NaN,NaN,NaN,NaN,,,NaN,NaN,NaN,NaN,NaN,NaN,NaN,NaN,NaN,NaN,NaN,,,NaN,NaN,NaN,NaN,NaN,,NaN,NaN,NaN,,,NaN,,,NaN,NaN,NaN,,NaN,NaN,NaN,NaN,NaN,NaN,NaN,34,67,여자,yes,yes,yes,yes,no,2023-06-07_16h14.14.162,Main,2022.2.4,29.9992740888713
NaN,,NaN,,,NaN,NaN,,,,NaN,,,,,NaN,,,NaN,NaN,NaN,NaN,NaN,NaN,NaN,NaN,NaN,NaN,NaN,NaN,0,0,0,0,NaN,NaN,NaN,NaN,NaN,NaN,NaN,NaN,NaN,NaN,NaN,NaN,NaN,NaN,NaN,NaN,NaN,NaN,NaN,NaN,NaN,NaN,NaN,NaN,NaN,NaN,NaN,NaN,NaN,NaN,NaN,NaN,NaN,NaN,NaN,NaN,NaN,NaN,NaN,NaN,NaN,NaN,NaN,NaN,NaN,,NaN,NaN,NaN,NaN,NaN,NaN,NaN,NaN,NaN,NaN,NaN,,,NaN,NaN,NaN,NaN,NaN,NaN,NaN,NaN,NaN,NaN,NaN,,,NaN,NaN,NaN,NaN,NaN,,NaN,NaN,NaN,,,NaN,,,NaN,NaN,NaN,,NaN,NaN,NaN,NaN,NaN,NaN,NaN,34,67,여자,yes,yes,yes,yes,no,2023-06-07_16h14.14.162,Main,2022.2.4,29.9992740888713
