TrialNum,Word,WordCategory,FishType,WordList,WordValence,WordReputation,CorrectResp,IncorrectResp,FishTypeFile,Round,WordType,Condition,target,distractor,set,ans1,ans2,weather_thisRepN,weather_thisTrialN,weather_thisN,weather_thisIndex,wth_repeat_prac_thisRepN,wth_repeat_prac_thisTrialN,wth_repeat_prac_thisN,wth_repeat_prac_thisIndex,wth_trials_thisRepN,wth_trials_thisTrialN,wth_trials_thisN,wth_trials_thisIndex,total_experiment_thisRepN,total_experiment_thisTrialN,total_experiment_thisN,total_experiment_thisIndex,boat_thisRepN,boat_thisTrialN,boat_thisN,boat_thisIndex,para_thisRepN,para_thisTrialN,para_thisN,para_thisIndex,fish_thisRepN,fish_thisTrialN,fish_thisN,fish_thisIndex,fis_temp_thisRepN,fis_temp_thisTrialN,fis_temp_thisN,fis_temp_thisIndex,fis_round_thisRepN,fis_round_thisTrialN,fis_round_thisN,fis_round_thisIndex,fis_trials_thisRepN,fis_trials_thisTrialN,fis_trials_thisN,fis_trials_thisIndex,fis_main_break_thisRepN,fis_main_break_thisTrialN,fis_main_break_thisN,fis_main_break_thisIndex,flanker_prac_loop_thisRepN,flanker_prac_loop_thisTrialN,flanker_prac_loop_thisN,flanker_prac_loop_thisIndex,flanker_main_loop_thisRepN,flanker_main_loop_thisTrialN,flanker_main_loop_thisN,flanker_main_loop_thisIndex,para_prac_loop_thisRepN,para_prac_loop_thisTrialN,para_prac_loop_thisN,para_prac_loop_thisIndex,para_main_loop_thisRepN,para_main_loop_thisTrialN,para_main_loop_thisN,para_main_loop_thisIndex,stimulus_interval,wth_resp,wth_rt,wth_valence_rating_2_response,wth_self_rating_2_response,wth_valence_rating_response,wth_self_rating_response,fis_slider_2_started,Fish_2_started,fis_WordBox_2_started,fis_Words_2_started,fis_slider_2_response,fis_slider_2_rt,Response_2,Feedback_2,fis_BackGround_Feedback_2_started,fis_Feedbacks_2_started,fis_Feedbacks_2_stopped,fis_BackGround_Feedback_2_stopped,fis_slider_started,fis_BackGround_started,Fish_started,fis_WordBox_started,fis_Words_started,fis_slider_response,fis_slider_rt,Response,Feedback,fis_BackGround_Feedback_started,fis_Feedbacks_started,fis_Feedbacks_stopped,fis_BackGround_Feedback_stopped,fis_roundN,main_prac,fl_cold,fl_colt,fl_set,fl_dcond,fl_tcond,targ_started,fl_ans,fl_res,fl_corr,fl_rt,fl_rt_2,fl_key_resp_keys,st_ans,st_res,st_corr,st_rt,st_rt2,st2_resp_keys,st2_resp_corr,id_,x___,x__,weather,boat,parachute,fish,test_mode,date,expName,psychopyVersion,frameRate
NaN,,NaN,,,NaN,NaN,,,,NaN,,,,,NaN,,,0,0,0,0,0,0,0,0,NaN,NaN,NaN,NaN,NaN,NaN,NaN,NaN,NaN,NaN,NaN,NaN,NaN,NaN,NaN,NaN,NaN,NaN,NaN,NaN,NaN,NaN,NaN,NaN,NaN,NaN,NaN,NaN,NaN,NaN,NaN,NaN,NaN,NaN,NaN,NaN,NaN,NaN,NaN,NaN,NaN,NaN,NaN,NaN,NaN,NaN,NaN,NaN,NaN,NaN,NaN,NaN,30,djadma,18.5404433999211,0.592592592592593,0.699588477366255,NaN,NaN,NaN,NaN,NaN,NaN,NaN,NaN,,,NaN,NaN,NaN,NaN,NaN,NaN,NaN,NaN,NaN,NaN,NaN,,,NaN,NaN,NaN,NaN,NaN,,NaN,NaN,NaN,,,NaN,,,NaN,NaN,NaN,,NaN,NaN,NaN,NaN,NaN,NaN,NaN,10,51,여자,yes,yes,yes,yes,no,2023-07-28_10h15.28.383,Main,2022.2.4,60.2180375603356
NaN,,NaN,,,NaN,NaN,,,,NaN,,,,,NaN,,,0,0,0,0,1,0,1,0,NaN,NaN,NaN,NaN,NaN,NaN,NaN,NaN,NaN,NaN,NaN,NaN,NaN,NaN,NaN,NaN,NaN,NaN,NaN,NaN,NaN,NaN,NaN,NaN,NaN,NaN,NaN,NaN,NaN,NaN,NaN,NaN,NaN,NaN,NaN,NaN,NaN,NaN,NaN,NaN,NaN,NaN,NaN,NaN,NaN,NaN,NaN,NaN,NaN,NaN,NaN,NaN,30,,8.49017270002514,0.724279835390947,0.679012345679012,NaN,NaN,NaN,NaN,NaN,NaN,NaN,NaN,,,NaN,NaN,NaN,NaN,NaN,NaN,NaN,NaN,NaN,NaN,NaN,,,NaN,NaN,NaN,NaN,NaN,,NaN,NaN,NaN,,,NaN,,,NaN,NaN,NaN,,NaN,NaN,NaN,NaN,NaN,NaN,NaN,10,51,여자,yes,yes,yes,yes,no,2023-07-28_10h15.28.383,Main,2022.2.4,60.2180375603356
NaN,,NaN,,,NaN,NaN,,,,NaN,,,,,NaN,,,0,0,0,0,2,0,2,0,NaN,NaN,NaN,NaN,NaN,NaN,NaN,NaN,NaN,NaN,NaN,NaN,NaN,NaN,NaN,NaN,NaN,NaN,NaN,NaN,NaN,NaN,NaN,NaN,NaN,NaN,NaN,NaN,NaN,NaN,NaN,NaN,NaN,NaN,NaN,NaN,NaN,NaN,NaN,NaN,NaN,NaN,NaN,NaN,NaN,NaN,NaN,NaN,NaN,NaN,NaN,NaN,30,tka,7.26391310011968,0.695473251028807,0.689300411522634,NaN,NaN,NaN,NaN,NaN,NaN,NaN,NaN,,,NaN,NaN,NaN,NaN,NaN,NaN,NaN,NaN,NaN,NaN,NaN,,,NaN,NaN,NaN,NaN,NaN,,NaN,NaN,NaN,,,NaN,,,NaN,NaN,NaN,,NaN,NaN,NaN,NaN,NaN,NaN,NaN,10,51,여자,yes,yes,yes,yes,no,2023-07-28_10h15.28.383,Main,2022.2.4,60.2180375603356
NaN,,NaN,,,NaN,NaN,,,,NaN,,,,,NaN,,,0,0,0,0,NaN,NaN,NaN,NaN,0,0,0,0,NaN,NaN,NaN,NaN,NaN,NaN,NaN,NaN,NaN,NaN,NaN,NaN,NaN,NaN,NaN,NaN,NaN,NaN,NaN,NaN,NaN,NaN,NaN,NaN,NaN,NaN,NaN,NaN,NaN,NaN,NaN,NaN,NaN,NaN,NaN,NaN,NaN,NaN,NaN,NaN,NaN,NaN,NaN,NaN,NaN,NaN,NaN,NaN,30,숨  트임,26.5159843000583,NaN,NaN,0.843621399176955,0.806584362139918,NaN,NaN,NaN,NaN,NaN,NaN,,,NaN,NaN,NaN,NaN,NaN,NaN,NaN,NaN,NaN,NaN,NaN,,,NaN,NaN,NaN,NaN,NaN,,NaN,NaN,NaN,,,NaN,,,NaN,NaN,NaN,,NaN,NaN,NaN,NaN,NaN,NaN,NaN,10,51,여자,yes,yes,yes,yes,no,2023-07-28_10h15.28.383,Main,2022.2.4,60.2180375603356
NaN,,NaN,,,NaN,NaN,,,,NaN,,,,,NaN,,,0,0,0,0,NaN,NaN,NaN,NaN,1,0,1,0,NaN,NaN,NaN,NaN,NaN,NaN,NaN,NaN,NaN,NaN,NaN,NaN,NaN,NaN,NaN,NaN,NaN,NaN,NaN,NaN,NaN,NaN,NaN,NaN,NaN,NaN,NaN,NaN,NaN,NaN,NaN,NaN,NaN,NaN,NaN,NaN,NaN,NaN,NaN,NaN,NaN,NaN,NaN,NaN,NaN,NaN,NaN,NaN,30,자유  홀가분,18.1396903996356,NaN,NaN,0.847736625514403,0.886831275720165,NaN,NaN,NaN,NaN,NaN,NaN,,,NaN,NaN,NaN,NaN,NaN,NaN,NaN,NaN,NaN,NaN,NaN,,,NaN,NaN,NaN,NaN,NaN,,NaN,NaN,NaN,,,NaN,,,NaN,NaN,NaN,,NaN,NaN,NaN,NaN,NaN,NaN,NaN,10,51,여자,yes,yes,yes,yes,no,2023-07-28_10h15.28.383,Main,2022.2.4,60.2180375603356
NaN,,NaN,,,NaN,NaN,,,,NaN,,,,,NaN,,,0,0,0,0,NaN,NaN,NaN,NaN,2,0,2,0,NaN,NaN,NaN,NaN,NaN,NaN,NaN,NaN,NaN,NaN,NaN,NaN,NaN,NaN,NaN,NaN,NaN,NaN,NaN,NaN,NaN,NaN,NaN,NaN,NaN,NaN,NaN,NaN,NaN,NaN,NaN,NaN,NaN,NaN,NaN,NaN,NaN,NaN,NaN,NaN,NaN,NaN,NaN,NaN,NaN,NaN,NaN,NaN,30,휴식 상쾌,16.4937839000486,NaN,NaN,0.814814814814815,0.79835390946502,NaN,NaN,NaN,NaN,NaN,NaN,,,NaN,NaN,NaN,NaN,NaN,NaN,NaN,NaN,NaN,NaN,NaN,,,NaN,NaN,NaN,NaN,NaN,,NaN,NaN,NaN,,,NaN,,,NaN,NaN,NaN,,NaN,NaN,NaN,NaN,NaN,NaN,NaN,10,51,여자,yes,yes,yes,yes,no,2023-07-28_10h15.28.383,Main,2022.2.4,60.2180375603356
NaN,,NaN,,,NaN,NaN,,,,NaN,,,,,NaN,,,0,0,0,0,NaN,NaN,NaN,NaN,3,0,3,0,NaN,NaN,NaN,NaN,NaN,NaN,NaN,NaN,NaN,NaN,NaN,NaN,NaN,NaN,NaN,NaN,NaN,NaN,NaN,NaN,NaN,NaN,NaN,NaN,NaN,NaN,NaN,NaN,NaN,NaN,NaN,NaN,NaN,NaN,NaN,NaN,NaN,NaN,NaN,NaN,NaN,NaN,NaN,NaN,NaN,NaN,NaN,NaN,30,날아가다,12.1098780999891,NaN,NaN,0.897119341563786,0.893004115226337,NaN,NaN,NaN,NaN,NaN,NaN,,,NaN,NaN,NaN,NaN,NaN,NaN,NaN,NaN,NaN,NaN,NaN,,,NaN,NaN,NaN,NaN,NaN,,NaN,NaN,NaN,,,NaN,,,NaN,NaN,NaN,,NaN,NaN,NaN,NaN,NaN,NaN,NaN,10,51,여자,yes,yes,yes,yes,no,2023-07-28_10h15.28.383,Main,2022.2.4,60.2180375603356
1,넌 교활해,5,Orange,B,2.33333333333333,2.13333333333333,ScrollUp,ScrollDown,Orange.png,NaN,,,,,NaN,,,NaN,NaN,NaN,NaN,NaN,NaN,NaN,NaN,NaN,NaN,NaN,NaN,0,0,0,0,NaN,NaN,NaN,NaN,NaN,NaN,NaN,NaN,0,0,0,0,0,0,0,0,NaN,NaN,NaN,NaN,NaN,NaN,NaN,NaN,NaN,NaN,NaN,NaN,NaN,NaN,NaN,NaN,NaN,NaN,NaN,NaN,NaN,NaN,NaN,NaN,NaN,NaN,NaN,NaN,NaN,,NaN,NaN,NaN,NaN,NaN,825.488783499692,825.488783499692,825.488783499692,825.488783499692,2,3.35658470029011,ScrollUp,정답,828.849825100042,828.849825100042,829.349205600098,829.871370600071,NaN,NaN,NaN,NaN,NaN,NaN,NaN,,,NaN,NaN,NaN,NaN,NaN,,NaN,NaN,NaN,,,NaN,,,NaN,NaN,NaN,,NaN,NaN,NaN,NaN,NaN,NaN,NaN,10,51,여자,yes,yes,yes,yes,no,2023-07-28_10h15.28.383,Main,2022.2.4,60.2180375603356
2,넌 슬기로워,2,Green,A,6.16666666666667,4.1,ScrollDown,ScrollUp,Green.png,NaN,,,,,NaN,,,NaN,NaN,NaN,NaN,NaN,NaN,NaN,NaN,NaN,NaN,NaN,NaN,0,0,0,0,NaN,NaN,NaN,NaN,NaN,NaN,NaN,NaN,0,0,0,0,0,1,1,1,NaN,NaN,NaN,NaN,NaN,NaN,NaN,NaN,NaN,NaN,NaN,NaN,NaN,NaN,NaN,NaN,NaN,NaN,NaN,NaN,NaN,NaN,NaN,NaN,NaN,NaN,NaN,NaN,NaN,,NaN,NaN,NaN,NaN,NaN,829.871370600071,829.871370600071,829.871370600071,829.871370600071,1,1.74883700022474,ScrollDown,정답,831.615728899837,831.615728899837,832.116346899886,832.622984599788,NaN,NaN,NaN,NaN,NaN,NaN,NaN,,,NaN,NaN,NaN,NaN,NaN,,NaN,NaN,NaN,,,NaN,,,NaN,NaN,NaN,,NaN,NaN,NaN,NaN,NaN,NaN,NaN,10,51,여자,yes,yes,yes,yes,no,2023-07-28_10h15.28.383,Main,2022.2.4,60.2180375603356
3,나를 보내줘,6,Green,A,0,0,ScrollUp,ScrollDown,Green.png,NaN,,,,,NaN,,,NaN,NaN,NaN,NaN,NaN,NaN,NaN,NaN,NaN,NaN,NaN,NaN,0,0,0,0,NaN,NaN,NaN,NaN,NaN,NaN,NaN,NaN,0,0,0,0,0,2,2,2,NaN,NaN,NaN,NaN,NaN,NaN,NaN,NaN,NaN,NaN,NaN,NaN,NaN,NaN,NaN,NaN,NaN,NaN,NaN,NaN,NaN,NaN,NaN,NaN,NaN,NaN,NaN,NaN,NaN,,NaN,NaN,NaN,NaN,NaN,832.622984599788,832.622984599788,832.622984599788,832.622984599788,1,2.88163419999182,ScrollDown,오답,835.515791799873,835.515791799873,836.016322599724,836.52443159977,NaN,NaN,NaN,NaN,NaN,NaN,NaN,,,NaN,NaN,NaN,NaN,NaN,,NaN,NaN,NaN,,,NaN,,,NaN,NaN,NaN,,NaN,NaN,NaN,NaN,NaN,NaN,NaN,10,51,여자,yes,yes,yes,yes,no,2023-07-28_10h15.28.383,Main,2022.2.4,60.2180375603356
4,나를 데려가줘,6,Orange,B,0,0,ScrollDown,ScrollUp,Orange.png,NaN,,,,,NaN,,,NaN,NaN,NaN,NaN,NaN,NaN,NaN,NaN,NaN,NaN,NaN,NaN,0,0,0,0,NaN,NaN,NaN,NaN,NaN,NaN,NaN,NaN,0,0,0,0,0,3,3,3,NaN,NaN,NaN,NaN,NaN,NaN,NaN,NaN,NaN,NaN,NaN,NaN,NaN,NaN,NaN,NaN,NaN,NaN,NaN,NaN,NaN,NaN,NaN,NaN,NaN,NaN,NaN,NaN,NaN,,NaN,NaN,NaN,NaN,NaN,836.52443159977,836.52443159977,836.52443159977,836.52443159977,1,2.03279550001025,ScrollDown,정답,838.565976399928,838.565976399928,839.065940199886,839.570625399705,NaN,NaN,NaN,NaN,NaN,NaN,NaN,,,NaN,NaN,NaN,NaN,NaN,,NaN,NaN,NaN,,,NaN,,,NaN,NaN,NaN,,NaN,NaN,NaN,NaN,NaN,NaN,NaN,10,51,여자,yes,yes,yes,yes,no,2023-07-28_10h15.28.383,Main,2022.2.4,60.2180375603356
1,넌 교활해,5,Orange,B,2.33333333333333,2.13333333333333,ScrollUp,ScrollDown,Orange.png,NaN,,,,,NaN,,,NaN,NaN,NaN,NaN,NaN,NaN,NaN,NaN,NaN,NaN,NaN,NaN,0,0,0,0,NaN,NaN,NaN,NaN,NaN,NaN,NaN,NaN,0,0,0,0,1,0,4,0,NaN,NaN,NaN,NaN,NaN,NaN,NaN,NaN,NaN,NaN,NaN,NaN,NaN,NaN,NaN,NaN,NaN,NaN,NaN,NaN,NaN,NaN,NaN,NaN,NaN,NaN,NaN,NaN,NaN,,NaN,NaN,NaN,NaN,NaN,839.570625399705,839.570625399705,839.570625399705,839.570625399705,2,1.78170980000868,ScrollUp,정답,841.365611799993,841.365611799993,841.866185199935,842.370544899721,NaN,NaN,NaN,NaN,NaN,NaN,NaN,,,NaN,NaN,NaN,NaN,NaN,,NaN,NaN,NaN,,,NaN,,,NaN,NaN,NaN,,NaN,NaN,NaN,NaN,NaN,NaN,NaN,10,51,여자,yes,yes,yes,yes,no,2023-07-28_10h15.28.383,Main,2022.2.4,60.2180375603356
2,넌 슬기로워,2,Green,A,6.16666666666667,4.1,ScrollDown,ScrollUp,Green.png,NaN,,,,,NaN,,,NaN,NaN,NaN,NaN,NaN,NaN,NaN,NaN,NaN,NaN,NaN,NaN,0,0,0,0,NaN,NaN,NaN,NaN,NaN,NaN,NaN,NaN,0,0,0,0,1,1,5,1,NaN,NaN,NaN,NaN,NaN,NaN,NaN,NaN,NaN,NaN,NaN,NaN,NaN,NaN,NaN,NaN,NaN,NaN,NaN,NaN,NaN,NaN,NaN,NaN,NaN,NaN,NaN,NaN,NaN,,NaN,NaN,NaN,NaN,NaN,842.370544899721,842.370544899721,842.370544899721,842.370544899721,1,1.50105250021443,ScrollDown,정답,843.88272470003,843.88272470003,844.38270929968,844.885148100089,NaN,NaN,NaN,NaN,NaN,NaN,NaN,,,NaN,NaN,NaN,NaN,NaN,,NaN,NaN,NaN,,,NaN,,,NaN,NaN,NaN,,NaN,NaN,NaN,NaN,NaN,NaN,NaN,10,51,여자,yes,yes,yes,yes,no,2023-07-28_10h15.28.383,Main,2022.2.4,60.2180375603356
3,나를 보내줘,6,Green,A,0,0,ScrollUp,ScrollDown,Green.png,NaN,,,,,NaN,,,NaN,NaN,NaN,NaN,NaN,NaN,NaN,NaN,NaN,NaN,NaN,NaN,0,0,0,0,NaN,NaN,NaN,NaN,NaN,NaN,NaN,NaN,0,0,0,0,1,2,6,2,NaN,NaN,NaN,NaN,NaN,NaN,NaN,NaN,NaN,NaN,NaN,NaN,NaN,NaN,NaN,NaN,NaN,NaN,NaN,NaN,NaN,NaN,NaN,NaN,NaN,NaN,NaN,NaN,NaN,,NaN,NaN,NaN,NaN,NaN,844.885148100089,844.885148100089,844.885148100089,844.885148100089,1.01543209876543,1.18405870022252,ScrollDown,오답,846.083058000077,846.083058000077,846.582712600008,847.087845399976,NaN,NaN,NaN,NaN,NaN,NaN,NaN,,,NaN,NaN,NaN,NaN,NaN,,NaN,NaN,NaN,,,NaN,,,NaN,NaN,NaN,,NaN,NaN,NaN,NaN,NaN,NaN,NaN,10,51,여자,yes,yes,yes,yes,no,2023-07-28_10h15.28.383,Main,2022.2.4,60.2180375603356
4,나를 데려가줘,6,Orange,B,0,0,ScrollDown,ScrollUp,Orange.png,NaN,,,,,NaN,,,NaN,NaN,NaN,NaN,NaN,NaN,NaN,NaN,NaN,NaN,NaN,NaN,0,0,0,0,NaN,NaN,NaN,NaN,NaN,NaN,NaN,NaN,0,0,0,0,1,3,7,3,NaN,NaN,NaN,NaN,NaN,NaN,NaN,NaN,NaN,NaN,NaN,NaN,NaN,NaN,NaN,NaN,NaN,NaN,NaN,NaN,NaN,NaN,NaN,NaN,NaN,NaN,NaN,NaN,NaN,,NaN,NaN,NaN,NaN,NaN,847.087845399976,847.087845399976,847.087845399976,847.087845399976,1.13117283950617,1.53327880008146,ScrollDown,정답,848.632570399903,848.632570399903,849.133019600064,849.634627500083,NaN,NaN,NaN,NaN,NaN,NaN,NaN,,,NaN,NaN,NaN,NaN,NaN,,NaN,NaN,NaN,,,NaN,,,NaN,NaN,NaN,,NaN,NaN,NaN,NaN,NaN,NaN,NaN,10,51,여자,yes,yes,yes,yes,no,2023-07-28_10h15.28.383,Main,2022.2.4,60.2180375603356
1,넌 교활해,5,Orange,B,2.33333333333333,2.13333333333333,ScrollUp,ScrollDown,Orange.png,NaN,,,,,NaN,,,NaN,NaN,NaN,NaN,NaN,NaN,NaN,NaN,NaN,NaN,NaN,NaN,0,0,0,0,NaN,NaN,NaN,NaN,NaN,NaN,NaN,NaN,0,0,0,0,2,0,8,0,NaN,NaN,NaN,NaN,NaN,NaN,NaN,NaN,NaN,NaN,NaN,NaN,NaN,NaN,NaN,NaN,NaN,NaN,NaN,NaN,NaN,NaN,NaN,NaN,NaN,NaN,NaN,NaN,NaN,,NaN,NaN,NaN,NaN,NaN,849.634627500083,849.634627500083,849.634627500083,849.634627500083,1.84413580246914,1.80109090032056,ScrollUp,정답,851.449816300068,851.449816300068,851.949212600011,852.452177099884,NaN,NaN,NaN,NaN,NaN,NaN,NaN,,,NaN,NaN,NaN,NaN,NaN,,NaN,NaN,NaN,,,NaN,,,NaN,NaN,NaN,,NaN,NaN,NaN,NaN,NaN,NaN,NaN,10,51,여자,yes,yes,yes,yes,no,2023-07-28_10h15.28.383,Main,2022.2.4,60.2180375603356
2,넌 슬기로워,2,Green,A,6.16666666666667,4.1,ScrollDown,ScrollUp,Green.png,NaN,,,,,NaN,,,NaN,NaN,NaN,NaN,NaN,NaN,NaN,NaN,NaN,NaN,NaN,NaN,0,0,0,0,NaN,NaN,NaN,NaN,NaN,NaN,NaN,NaN,0,0,0,0,2,1,9,1,NaN,NaN,NaN,NaN,NaN,NaN,NaN,NaN,NaN,NaN,NaN,NaN,NaN,NaN,NaN,NaN,NaN,NaN,NaN,NaN,NaN,NaN,NaN,NaN,NaN,NaN,NaN,NaN,NaN,,NaN,NaN,NaN,NaN,NaN,852.452177099884,852.452177099884,852.452177099884,852.452177099884,1.16512345679012,1.10008960030973,ScrollDown,정답,853.56607919978,853.56607919978,854.065892899875,854.573364499956,NaN,NaN,NaN,NaN,NaN,NaN,NaN,,,NaN,NaN,NaN,NaN,NaN,,NaN,NaN,NaN,,,NaN,,,NaN,NaN,NaN,,NaN,NaN,NaN,NaN,NaN,NaN,NaN,10,51,여자,yes,yes,yes,yes,no,2023-07-28_10h15.28.383,Main,2022.2.4,60.2180375603356
3,나를 보내줘,6,Green,A,0,0,ScrollUp,ScrollDown,Green.png,NaN,,,,,NaN,,,NaN,NaN,NaN,NaN,NaN,NaN,NaN,NaN,NaN,NaN,NaN,NaN,0,0,0,0,NaN,NaN,NaN,NaN,NaN,NaN,NaN,NaN,0,0,0,0,2,2,10,2,NaN,NaN,NaN,NaN,NaN,NaN,NaN,NaN,NaN,NaN,NaN,NaN,NaN,NaN,NaN,NaN,NaN,NaN,NaN,NaN,NaN,NaN,NaN,NaN,NaN,NaN,NaN,NaN,NaN,,NaN,NaN,NaN,NaN,NaN,854.573364499956,854.573364499956,854.573364499956,854.573364499956,2,1.28149180021137,ScrollUp,정답,855.865729900077,855.865729900077,856.365799800027,856.868841999676,NaN,NaN,NaN,NaN,NaN,NaN,NaN,,,NaN,NaN,NaN,NaN,NaN,,NaN,NaN,NaN,,,NaN,,,NaN,NaN,NaN,,NaN,NaN,NaN,NaN,NaN,NaN,NaN,10,51,여자,yes,yes,yes,yes,no,2023-07-28_10h15.28.383,Main,2022.2.4,60.2180375603356
4,나를 데려가줘,6,Orange,B,0,0,ScrollDown,ScrollUp,Orange.png,NaN,,,,,NaN,,,NaN,NaN,NaN,NaN,NaN,NaN,NaN,NaN,NaN,NaN,NaN,NaN,0,0,0,0,NaN,NaN,NaN,NaN,NaN,NaN,NaN,NaN,0,0,0,0,2,3,11,3,NaN,NaN,NaN,NaN,NaN,NaN,NaN,NaN,NaN,NaN,NaN,NaN,NaN,NaN,NaN,NaN,NaN,NaN,NaN,NaN,NaN,NaN,NaN,NaN,NaN,NaN,NaN,NaN,NaN,,NaN,NaN,NaN,NaN,NaN,856.868841999676,856.868841999676,856.868841999676,856.868841999676,1.1929012345679,1.08463099971414,ScrollDown,정답,857.965716999955,857.965716999955,858.466674699914,858.966863899957,NaN,NaN,NaN,NaN,NaN,NaN,NaN,,,NaN,NaN,NaN,NaN,NaN,,NaN,NaN,NaN,,,NaN,,,NaN,NaN,NaN,,NaN,NaN,NaN,NaN,NaN,NaN,NaN,10,51,여자,yes,yes,yes,yes,no,2023-07-28_10h15.28.383,Main,2022.2.4,60.2180375603356
1,넌 따뜻해,1,Orange,B,6.08333333333333,5.6,ScrollUp,ScrollDown,Orange.png,1,Positive,Incongruent,,,NaN,,,NaN,NaN,NaN,NaN,NaN,NaN,NaN,NaN,NaN,NaN,NaN,NaN,0,0,0,0,NaN,NaN,NaN,NaN,NaN,NaN,NaN,NaN,0,0,0,0,NaN,NaN,NaN,NaN,0,0,0,0,0,0,0,0,NaN,NaN,NaN,NaN,NaN,NaN,NaN,NaN,NaN,NaN,NaN,NaN,NaN,NaN,NaN,NaN,NaN,NaN,NaN,NaN,NaN,,NaN,NaN,NaN,NaN,NaN,NaN,NaN,NaN,NaN,NaN,NaN,,,NaN,NaN,NaN,NaN,868.849262299947,868.849262299947,868.849262299947,868.849262299947,868.849262299947,1.0570987654321,1.95512659987435,ScrollDown,오답,870.800326999743,870.800326999743,871.299188300036,871.822653200012,NaN,,NaN,NaN,NaN,,,NaN,,,NaN,NaN,NaN,,NaN,NaN,NaN,NaN,NaN,NaN,NaN,10,51,여자,yes,yes,yes,yes,no,2023-07-28_10h15.28.383,Main,2022.2.4,60.2180375603356
2,넌 기품있어,2,Orange,B,5.79166666666667,4.5,ScrollUp,ScrollDown,Orange.png,1,Positive,Incongruent,,,NaN,,,NaN,NaN,NaN,NaN,NaN,NaN,NaN,NaN,NaN,NaN,NaN,NaN,0,0,0,0,NaN,NaN,NaN,NaN,NaN,NaN,NaN,NaN,0,0,0,0,NaN,NaN,NaN,NaN,0,0,0,0,0,1,1,1,NaN,NaN,NaN,NaN,NaN,NaN,NaN,NaN,NaN,NaN,NaN,NaN,NaN,NaN,NaN,NaN,NaN,NaN,NaN,NaN,NaN,,NaN,NaN,NaN,NaN,NaN,NaN,NaN,NaN,NaN,NaN,NaN,,,NaN,NaN,NaN,NaN,871.822653200012,871.822653200012,871.822653200012,871.822653200012,871.822653200012,1.22685185185185,1.41639330005273,ScrollDown,오답,873.232900099829,873.232900099829,873.733480299823,874.246008299757,NaN,,NaN,NaN,NaN,,,NaN,,,NaN,NaN,NaN,,NaN,NaN,NaN,NaN,NaN,NaN,NaN,10,51,여자,yes,yes,yes,yes,no,2023-07-28_10h15.28.383,Main,2022.2.4,60.2180375603356
3,나를 보내줘,6,Green,A,0,0,ScrollUp,ScrollDown,Green.png,1,NonTarget,NonTarget,,,NaN,,,NaN,NaN,NaN,NaN,NaN,NaN,NaN,NaN,NaN,NaN,NaN,NaN,0,0,0,0,NaN,NaN,NaN,NaN,NaN,NaN,NaN,NaN,0,0,0,0,NaN,NaN,NaN,NaN,0,0,0,0,0,2,2,2,NaN,NaN,NaN,NaN,NaN,NaN,NaN,NaN,NaN,NaN,NaN,NaN,NaN,NaN,NaN,NaN,NaN,NaN,NaN,NaN,NaN,,NaN,NaN,NaN,NaN,NaN,NaN,NaN,NaN,NaN,NaN,NaN,,,NaN,NaN,NaN,NaN,874.246008299757,874.246008299757,874.246008299757,874.246008299757,874.246008299757,1.03395061728395,2.43298189993948,ScrollDown,오답,876.682535700034,876.682535700034,877.183563199826,877.697796899825,NaN,,NaN,NaN,NaN,,,NaN,,,NaN,NaN,NaN,,NaN,NaN,NaN,NaN,NaN,NaN,NaN,10,51,여자,yes,yes,yes,yes,no,2023-07-28_10h15.28.383,Main,2022.2.4,60.2180375603356
4,넌 수동적이야,4,Green,A,2.83333333333333,2.93333333333333,ScrollDown,ScrollUp,Green.png,1,Negative,Incongruent,,,NaN,,,NaN,NaN,NaN,NaN,NaN,NaN,NaN,NaN,NaN,NaN,NaN,NaN,0,0,0,0,NaN,NaN,NaN,NaN,NaN,NaN,NaN,NaN,0,0,0,0,NaN,NaN,NaN,NaN,0,0,0,0,0,3,3,3,NaN,NaN,NaN,NaN,NaN,NaN,NaN,NaN,NaN,NaN,NaN,NaN,NaN,NaN,NaN,NaN,NaN,NaN,NaN,NaN,NaN,,NaN,NaN,NaN,NaN,NaN,NaN,NaN,NaN,NaN,NaN,NaN,,,NaN,NaN,NaN,NaN,877.697796899825,877.697796899825,877.697796899825,877.697796899825,877.697796899825,2,2.76576820015907,ScrollUp,오답,880.465859699994,880.465859699994,880.965898300055,881.494094700087,NaN,,NaN,NaN,NaN,,,NaN,,,NaN,NaN,NaN,,NaN,NaN,NaN,NaN,NaN,NaN,NaN,10,51,여자,yes,yes,yes,yes,no,2023-07-28_10h15.28.383,Main,2022.2.4,60.2180375603356
5,넌 사심이 없어,3,Orange,B,4.91666666666667,4.33333333333333,ScrollUp,ScrollDown,Orange.png,1,Neutral,Neutral,,,NaN,,,NaN,NaN,NaN,NaN,NaN,NaN,NaN,NaN,NaN,NaN,NaN,NaN,0,0,0,0,NaN,NaN,NaN,NaN,NaN,NaN,NaN,NaN,0,0,0,0,NaN,NaN,NaN,NaN,0,0,0,0,0,4,4,4,NaN,NaN,NaN,NaN,NaN,NaN,NaN,NaN,NaN,NaN,NaN,NaN,NaN,NaN,NaN,NaN,NaN,NaN,NaN,NaN,NaN,,NaN,NaN,NaN,NaN,NaN,NaN,NaN,NaN,NaN,NaN,NaN,,,NaN,NaN,NaN,NaN,881.494094700087,881.494094700087,881.494094700087,881.494094700087,881.494094700087,2,1.7820358001627,ScrollUp,정답,883.26570879994,883.26570879994,883.765730000101,884.279300099704,NaN,,NaN,NaN,NaN,,,NaN,,,NaN,NaN,NaN,,NaN,NaN,NaN,NaN,NaN,NaN,NaN,10,51,여자,yes,yes,yes,yes,no,2023-07-28_10h15.28.383,Main,2022.2.4,60.2180375603356
6,넌 헤퍼,5,Green,A,2.45833333333333,2.23333333333333,ScrollDown,ScrollUp,Green.png,1,Negative,Incongruent,,,NaN,,,NaN,NaN,NaN,NaN,NaN,NaN,NaN,NaN,NaN,NaN,NaN,NaN,0,0,0,0,NaN,NaN,NaN,NaN,NaN,NaN,NaN,NaN,0,0,0,0,NaN,NaN,NaN,NaN,0,0,0,0,0,5,5,5,NaN,NaN,NaN,NaN,NaN,NaN,NaN,NaN,NaN,NaN,NaN,NaN,NaN,NaN,NaN,NaN,NaN,NaN,NaN,NaN,NaN,,NaN,NaN,NaN,NaN,NaN,NaN,NaN,NaN,NaN,NaN,NaN,,,NaN,NaN,NaN,NaN,884.279300099704,884.279300099704,884.279300099704,884.279300099704,884.279300099704,1.02006172839506,1.18228860013187,ScrollDown,정답,885.465708700009,885.465708700009,885.965718700085,886.489911799785,NaN,,NaN,NaN,NaN,,,NaN,,,NaN,NaN,NaN,,NaN,NaN,NaN,NaN,NaN,NaN,NaN,10,51,여자,yes,yes,yes,yes,no,2023-07-28_10h15.28.383,Main,2022.2.4,60.2180375603356
7,넌 말쑥해,3,Green,A,4.83333333333333,4.33333333333333,ScrollDown,ScrollUp,Green.png,1,Neutral,Neutral,,,NaN,,,NaN,NaN,NaN,NaN,NaN,NaN,NaN,NaN,NaN,NaN,NaN,NaN,0,0,0,0,NaN,NaN,NaN,NaN,NaN,NaN,NaN,NaN,0,0,0,0,NaN,NaN,NaN,NaN,0,0,0,0,0,6,6,6,NaN,NaN,NaN,NaN,NaN,NaN,NaN,NaN,NaN,NaN,NaN,NaN,NaN,NaN,NaN,NaN,NaN,NaN,NaN,NaN,NaN,,NaN,NaN,NaN,NaN,NaN,NaN,NaN,NaN,NaN,NaN,NaN,,,NaN,NaN,NaN,NaN,886.489911799785,886.489911799785,886.489911799785,886.489911799785,886.489911799785,1.13425925925926,1.60033190017566,ScrollDown,정답,888.082552100066,888.082552100066,888.583267999813,889.097367799841,NaN,,NaN,NaN,NaN,,,NaN,,,NaN,NaN,NaN,,NaN,NaN,NaN,NaN,NaN,NaN,NaN,10,51,여자,yes,yes,yes,yes,no,2023-07-28_10h15.28.383,Main,2022.2.4,60.2180375603356
8,넌 투덜거려,5,Orange,B,2.54166666666667,2.26666666666667,ScrollUp,ScrollDown,Orange.png,1,Negative,Congruent,,,NaN,,,NaN,NaN,NaN,NaN,NaN,NaN,NaN,NaN,NaN,NaN,NaN,NaN,0,0,0,0,NaN,NaN,NaN,NaN,NaN,NaN,NaN,NaN,0,0,0,0,NaN,NaN,NaN,NaN,0,0,0,0,0,7,7,7,NaN,NaN,NaN,NaN,NaN,NaN,NaN,NaN,NaN,NaN,NaN,NaN,NaN,NaN,NaN,NaN,NaN,NaN,NaN,NaN,NaN,,NaN,NaN,NaN,NaN,NaN,NaN,NaN,NaN,NaN,NaN,NaN,,,NaN,NaN,NaN,NaN,889.097367799841,889.097367799841,889.097367799841,889.097367799841,889.097367799841,2,1.88189180009067,ScrollUp,정답,890.982518999837,890.982518999837,891.482933599968,891.990675199777,NaN,,NaN,NaN,NaN,,,NaN,,,NaN,NaN,NaN,,NaN,NaN,NaN,NaN,NaN,NaN,NaN,10,51,여자,yes,yes,yes,yes,no,2023-07-28_10h15.28.383,Main,2022.2.4,60.2180375603356
9,넌 적극적이야,1,Green,A,5.70833333333333,5.53333333333333,ScrollDown,ScrollUp,Green.png,1,Positive,Congruent,,,NaN,,,NaN,NaN,NaN,NaN,NaN,NaN,NaN,NaN,NaN,NaN,NaN,NaN,0,0,0,0,NaN,NaN,NaN,NaN,NaN,NaN,NaN,NaN,0,0,0,0,NaN,NaN,NaN,NaN,0,0,0,0,0,8,8,8,NaN,NaN,NaN,NaN,NaN,NaN,NaN,NaN,NaN,NaN,NaN,NaN,NaN,NaN,NaN,NaN,NaN,NaN,NaN,NaN,NaN,,NaN,NaN,NaN,NaN,NaN,NaN,NaN,NaN,NaN,NaN,NaN,,,NaN,NaN,NaN,NaN,891.990675199777,891.990675199777,891.990675199777,891.990675199777,891.990675199777,1.08641975308642,1.1001657997258,ScrollDown,정답,893.099121700041,893.099121700041,893.599191199988,894.114829299971,NaN,,NaN,NaN,NaN,,,NaN,,,NaN,NaN,NaN,,NaN,NaN,NaN,NaN,NaN,NaN,NaN,10,51,여자,yes,yes,yes,yes,no,2023-07-28_10h15.28.383,Main,2022.2.4,60.2180375603356
10,넌 재미없어,4,Orange,B,2.625,2.96666666666667,ScrollUp,ScrollDown,Orange.png,1,Negative,Congruent,,,NaN,,,NaN,NaN,NaN,NaN,NaN,NaN,NaN,NaN,NaN,NaN,NaN,NaN,0,0,0,0,NaN,NaN,NaN,NaN,NaN,NaN,NaN,NaN,0,0,0,0,NaN,NaN,NaN,NaN,0,0,0,0,0,9,9,9,NaN,NaN,NaN,NaN,NaN,NaN,NaN,NaN,NaN,NaN,NaN,NaN,NaN,NaN,NaN,NaN,NaN,NaN,NaN,NaN,NaN,,NaN,NaN,NaN,NaN,NaN,NaN,NaN,NaN,NaN,NaN,NaN,,,NaN,NaN,NaN,NaN,894.114829299971,894.114829299971,894.114829299971,894.114829299971,894.114829299971,2,1.78231600020081,ScrollUp,정답,895.899100000039,895.899100000039,896.399176300038,896.911839599721,NaN,,NaN,NaN,NaN,,,NaN,,,NaN,NaN,NaN,,NaN,NaN,NaN,NaN,NaN,NaN,NaN,10,51,여자,yes,yes,yes,yes,no,2023-07-28_10h15.28.383,Main,2022.2.4,60.2180375603356
11,넌 명석해,2,Green,A,5.875,4.03333333333333,ScrollDown,ScrollUp,Green.png,1,Positive,Congruent,,,NaN,,,NaN,NaN,NaN,NaN,NaN,NaN,NaN,NaN,NaN,NaN,NaN,NaN,0,0,0,0,NaN,NaN,NaN,NaN,NaN,NaN,NaN,NaN,0,0,0,0,NaN,NaN,NaN,NaN,0,0,0,0,0,10,10,10,NaN,NaN,NaN,NaN,NaN,NaN,NaN,NaN,NaN,NaN,NaN,NaN,NaN,NaN,NaN,NaN,NaN,NaN,NaN,NaN,NaN,,NaN,NaN,NaN,NaN,NaN,NaN,NaN,NaN,NaN,NaN,NaN,,,NaN,NaN,NaN,NaN,896.911839599721,896.911839599721,896.911839599721,896.911839599721,896.911839599721,1.17283950617284,1.56508300034329,ScrollDown,정답,898.483115599956,898.483115599956,898.983018899802,899.495181600098,NaN,,NaN,NaN,NaN,,,NaN,,,NaN,NaN,NaN,,NaN,NaN,NaN,NaN,NaN,NaN,NaN,10,51,여자,yes,yes,yes,yes,no,2023-07-28_10h15.28.383,Main,2022.2.4,60.2180375603356
12,나를 데려가줘,6,Orange,B,0,0,ScrollDown,ScrollUp,Orange.png,1,NonTarget,NonTarget,,,NaN,,,NaN,NaN,NaN,NaN,NaN,NaN,NaN,NaN,NaN,NaN,NaN,NaN,0,0,0,0,NaN,NaN,NaN,NaN,NaN,NaN,NaN,NaN,0,0,0,0,NaN,NaN,NaN,NaN,0,0,0,0,0,11,11,11,NaN,NaN,NaN,NaN,NaN,NaN,NaN,NaN,NaN,NaN,NaN,NaN,NaN,NaN,NaN,NaN,NaN,NaN,NaN,NaN,NaN,,NaN,NaN,NaN,NaN,NaN,NaN,NaN,NaN,NaN,NaN,NaN,,,NaN,NaN,NaN,NaN,899.495181600098,899.495181600098,899.495181600098,899.495181600098,899.495181600098,2,3.5163308000192,ScrollUp,오답,903.015636499971,903.015636499971,903.515741299838,904.027334599756,NaN,,NaN,NaN,NaN,,,NaN,,,NaN,NaN,NaN,,NaN,NaN,NaN,NaN,NaN,NaN,NaN,10,51,여자,yes,yes,yes,yes,no,2023-07-28_10h15.28.383,Main,2022.2.4,60.2180375603356
13,넌 소심해,4,Green,A,3,3.1,ScrollDown,ScrollUp,Green.png,1,Negative,Incongruent,,,NaN,,,NaN,NaN,NaN,NaN,NaN,NaN,NaN,NaN,NaN,NaN,NaN,NaN,0,0,0,0,NaN,NaN,NaN,NaN,NaN,NaN,NaN,NaN,0,0,0,0,NaN,NaN,NaN,NaN,0,0,0,0,0,12,12,12,NaN,NaN,NaN,NaN,NaN,NaN,NaN,NaN,NaN,NaN,NaN,NaN,NaN,NaN,NaN,NaN,NaN,NaN,NaN,NaN,NaN,,NaN,NaN,NaN,NaN,NaN,NaN,NaN,NaN,NaN,NaN,NaN,,,NaN,NaN,NaN,NaN,904.027334599756,904.027334599756,904.027334599756,904.027334599756,904.027334599756,1,1.11605350021273,ScrollDown,정답,905.149048399646,905.149048399646,905.649377599824,906.159084099811,NaN,,NaN,NaN,NaN,,,NaN,,,NaN,NaN,NaN,,NaN,NaN,NaN,NaN,NaN,NaN,NaN,10,51,여자,yes,yes,yes,yes,no,2023-07-28_10h15.28.383,Main,2022.2.4,60.2180375603356
14,넌 합리적이야,2,Green,A,5.58333333333333,4.73333333333333,ScrollDown,ScrollUp,Green.png,1,Positive,Congruent,,,NaN,,,NaN,NaN,NaN,NaN,NaN,NaN,NaN,NaN,NaN,NaN,NaN,NaN,0,0,0,0,NaN,NaN,NaN,NaN,NaN,NaN,NaN,NaN,0,0,0,0,NaN,NaN,NaN,NaN,0,0,0,0,0,13,13,13,NaN,NaN,NaN,NaN,NaN,NaN,NaN,NaN,NaN,NaN,NaN,NaN,NaN,NaN,NaN,NaN,NaN,NaN,NaN,NaN,NaN,,NaN,NaN,NaN,NaN,NaN,NaN,NaN,NaN,NaN,NaN,NaN,,,NaN,NaN,NaN,NaN,906.159084099811,906.159084099811,906.159084099811,906.159084099811,906.159084099811,1,1.46613739989698,ScrollDown,정답,907.632627999876,907.632627999876,908.132593799848,908.647463599686,NaN,,NaN,NaN,NaN,,,NaN,,,NaN,NaN,NaN,,NaN,NaN,NaN,NaN,NaN,NaN,NaN,10,51,여자,yes,yes,yes,yes,no,2023-07-28_10h15.28.383,Main,2022.2.4,60.2180375603356
15,넌 무자비해,5,Orange,B,2.33333333333333,2.1,ScrollUp,ScrollDown,Orange.png,1,Negative,Congruent,,,NaN,,,NaN,NaN,NaN,NaN,NaN,NaN,NaN,NaN,NaN,NaN,NaN,NaN,0,0,0,0,NaN,NaN,NaN,NaN,NaN,NaN,NaN,NaN,0,0,0,0,NaN,NaN,NaN,NaN,0,0,0,0,0,14,14,14,NaN,NaN,NaN,NaN,NaN,NaN,NaN,NaN,NaN,NaN,NaN,NaN,NaN,NaN,NaN,NaN,NaN,NaN,NaN,NaN,NaN,,NaN,NaN,NaN,NaN,NaN,NaN,NaN,NaN,NaN,NaN,NaN,,,NaN,NaN,NaN,NaN,908.647463599686,908.647463599686,908.647463599686,908.647463599686,908.647463599686,2,1.03212899994105,ScrollUp,정답,909.683221799787,909.683221799787,910.182629699819,910.692179099657,NaN,,NaN,NaN,NaN,,,NaN,,,NaN,NaN,NaN,,NaN,NaN,NaN,NaN,NaN,NaN,NaN,10,51,여자,yes,yes,yes,yes,no,2023-07-28_10h15.28.383,Main,2022.2.4,60.2180375603356
16,나를 보내줘,6,Green,A,0,0,ScrollUp,ScrollDown,Green.png,1,NonTarget,NonTarget,,,NaN,,,NaN,NaN,NaN,NaN,NaN,NaN,NaN,NaN,NaN,NaN,NaN,NaN,0,0,0,0,NaN,NaN,NaN,NaN,NaN,NaN,NaN,NaN,0,0,0,0,NaN,NaN,NaN,NaN,0,0,0,0,0,15,15,15,NaN,NaN,NaN,NaN,NaN,NaN,NaN,NaN,NaN,NaN,NaN,NaN,NaN,NaN,NaN,NaN,NaN,NaN,NaN,NaN,NaN,,NaN,NaN,NaN,NaN,NaN,NaN,NaN,NaN,NaN,NaN,NaN,,,NaN,NaN,NaN,NaN,910.692179099657,910.692179099657,910.692179099657,910.692179099657,910.692179099657,2,1.16569689987227,ScrollUp,정답,911.865666799713,911.865666799713,912.365934799891,912.880079099908,NaN,,NaN,NaN,NaN,,,NaN,,,NaN,NaN,NaN,,NaN,NaN,NaN,NaN,NaN,NaN,NaN,10,51,여자,yes,yes,yes,yes,no,2023-07-28_10h15.28.383,Main,2022.2.4,60.2180375603356
17,넌 현실적이야,3,Orange,B,4.60869565217391,4.76666666666667,ScrollUp,ScrollDown,Orange.png,1,Neutral,Neutral,,,NaN,,,NaN,NaN,NaN,NaN,NaN,NaN,NaN,NaN,NaN,NaN,NaN,NaN,0,0,0,0,NaN,NaN,NaN,NaN,NaN,NaN,NaN,NaN,0,0,0,0,NaN,NaN,NaN,NaN,0,0,0,0,0,16,16,16,NaN,NaN,NaN,NaN,NaN,NaN,NaN,NaN,NaN,NaN,NaN,NaN,NaN,NaN,NaN,NaN,NaN,NaN,NaN,NaN,NaN,,NaN,NaN,NaN,NaN,NaN,NaN,NaN,NaN,NaN,NaN,NaN,,,NaN,NaN,NaN,NaN,912.880079099908,912.880079099908,912.880079099908,912.880079099908,912.880079099908,2,1.21557420026511,ScrollUp,정답,914.098980200011,914.098980200011,914.599176999647,915.107651299797,NaN,,NaN,NaN,NaN,,,NaN,,,NaN,NaN,NaN,,NaN,NaN,NaN,NaN,NaN,NaN,NaN,10,51,여자,yes,yes,yes,yes,no,2023-07-28_10h15.28.383,Main,2022.2.4,60.2180375603356
18,넌 의리있어,1,Orange,B,5.83333333333333,5.63333333333333,ScrollUp,ScrollDown,Orange.png,1,Positive,Incongruent,,,NaN,,,NaN,NaN,NaN,NaN,NaN,NaN,NaN,NaN,NaN,NaN,NaN,NaN,0,0,0,0,NaN,NaN,NaN,NaN,NaN,NaN,NaN,NaN,0,0,0,0,NaN,NaN,NaN,NaN,0,0,0,0,0,17,17,17,NaN,NaN,NaN,NaN,NaN,NaN,NaN,NaN,NaN,NaN,NaN,NaN,NaN,NaN,NaN,NaN,NaN,NaN,NaN,NaN,NaN,,NaN,NaN,NaN,NaN,NaN,NaN,NaN,NaN,NaN,NaN,NaN,,,NaN,NaN,NaN,NaN,915.107651299797,915.107651299797,915.107651299797,915.107651299797,915.107651299797,2,1.0991001999937,ScrollUp,정답,916.215902099852,916.215902099852,916.715773799922,917.230155899655,NaN,,NaN,NaN,NaN,,,NaN,,,NaN,NaN,NaN,,NaN,NaN,NaN,NaN,NaN,NaN,NaN,10,51,여자,yes,yes,yes,yes,no,2023-07-28_10h15.28.383,Main,2022.2.4,60.2180375603356
19,넌 신경과민이야,5,Green,A,2.54166666666667,2.16666666666667,ScrollDown,ScrollUp,Green.png,1,Negative,Incongruent,,,NaN,,,NaN,NaN,NaN,NaN,NaN,NaN,NaN,NaN,NaN,NaN,NaN,NaN,0,0,0,0,NaN,NaN,NaN,NaN,NaN,NaN,NaN,NaN,0,0,0,0,NaN,NaN,NaN,NaN,0,0,0,0,0,18,18,18,NaN,NaN,NaN,NaN,NaN,NaN,NaN,NaN,NaN,NaN,NaN,NaN,NaN,NaN,NaN,NaN,NaN,NaN,NaN,NaN,NaN,,NaN,NaN,NaN,NaN,NaN,NaN,NaN,NaN,NaN,NaN,NaN,,,NaN,NaN,NaN,NaN,917.230155899655,917.230155899655,917.230155899655,917.230155899655,917.230155899655,1,1.44942560000345,ScrollDown,정답,918.682721300051,918.682721300051,919.182683599647,919.689125400037,NaN,,NaN,NaN,NaN,,,NaN,,,NaN,NaN,NaN,,NaN,NaN,NaN,NaN,NaN,NaN,NaN,10,51,여자,yes,yes,yes,yes,no,2023-07-28_10h15.28.383,Main,2022.2.4,60.2180375603356
20,넌 편안해,1,Green,A,5.91666666666667,5.86666666666667,ScrollDown,ScrollUp,Green.png,1,Positive,Congruent,,,NaN,,,NaN,NaN,NaN,NaN,NaN,NaN,NaN,NaN,NaN,NaN,NaN,NaN,0,0,0,0,NaN,NaN,NaN,NaN,NaN,NaN,NaN,NaN,0,0,0,0,NaN,NaN,NaN,NaN,0,0,0,0,0,19,19,19,NaN,NaN,NaN,NaN,NaN,NaN,NaN,NaN,NaN,NaN,NaN,NaN,NaN,NaN,NaN,NaN,NaN,NaN,NaN,NaN,NaN,,NaN,NaN,NaN,NaN,NaN,NaN,NaN,NaN,NaN,NaN,NaN,,,NaN,NaN,NaN,NaN,919.689125400037,919.689125400037,919.689125400037,919.689125400037,919.689125400037,1,1.33308039978147,ScrollDown,정답,921.032681299839,921.032681299839,921.532823099755,922.047542599961,NaN,,NaN,NaN,NaN,,,NaN,,,NaN,NaN,NaN,,NaN,NaN,NaN,NaN,NaN,NaN,NaN,10,51,여자,yes,yes,yes,yes,no,2023-07-28_10h15.28.383,Main,2022.2.4,60.2180375603356
21,넌 품위있어,2,Orange,B,5.29166666666667,4.46666666666667,ScrollUp,ScrollDown,Orange.png,1,Positive,Incongruent,,,NaN,,,NaN,NaN,NaN,NaN,NaN,NaN,NaN,NaN,NaN,NaN,NaN,NaN,0,0,0,0,NaN,NaN,NaN,NaN,NaN,NaN,NaN,NaN,0,0,0,0,NaN,NaN,NaN,NaN,0,0,0,0,0,20,20,20,NaN,NaN,NaN,NaN,NaN,NaN,NaN,NaN,NaN,NaN,NaN,NaN,NaN,NaN,NaN,NaN,NaN,NaN,NaN,NaN,NaN,,NaN,NaN,NaN,NaN,NaN,NaN,NaN,NaN,NaN,NaN,NaN,,,NaN,NaN,NaN,NaN,922.047542599961,922.047542599961,922.047542599961,922.047542599961,922.047542599961,2,1.04945640033111,ScrollUp,정답,923.099377699662,923.099377699662,923.599191899877,924.109979399946,NaN,,NaN,NaN,NaN,,,NaN,,,NaN,NaN,NaN,,NaN,NaN,NaN,NaN,NaN,NaN,NaN,10,51,여자,yes,yes,yes,yes,no,2023-07-28_10h15.28.383,Main,2022.2.4,60.2180375603356
22,넌 빈틈없어,3,Green,A,4.83333333333333,3.96666666666667,ScrollDown,ScrollUp,Green.png,1,Neutral,Neutral,,,NaN,,,NaN,NaN,NaN,NaN,NaN,NaN,NaN,NaN,NaN,NaN,NaN,NaN,0,0,0,0,NaN,NaN,NaN,NaN,NaN,NaN,NaN,NaN,0,0,0,0,NaN,NaN,NaN,NaN,0,0,0,0,0,21,21,21,NaN,NaN,NaN,NaN,NaN,NaN,NaN,NaN,NaN,NaN,NaN,NaN,NaN,NaN,NaN,NaN,NaN,NaN,NaN,NaN,NaN,,NaN,NaN,NaN,NaN,NaN,NaN,NaN,NaN,NaN,NaN,NaN,,,NaN,NaN,NaN,NaN,924.109979399946,924.109979399946,924.109979399946,924.109979399946,924.109979399946,1,1.06605429993942,ScrollDown,정답,925.183746799827,925.183746799827,925.699423199985,NaN,NaN,,NaN,NaN,NaN,,,NaN,,,NaN,NaN,NaN,,NaN,NaN,NaN,NaN,NaN,NaN,NaN,10,51,여자,yes,yes,yes,yes,no,2023-07-28_10h15.28.383,Main,2022.2.4,60.2180375603356
23,넌 상상력없어,4,Orange,B,2.83333333333333,3.13333333333333,ScrollUp,ScrollDown,Orange.png,1,Negative,Congruent,,,NaN,,,NaN,NaN,NaN,NaN,NaN,NaN,NaN,NaN,NaN,NaN,NaN,NaN,0,0,0,0,NaN,NaN,NaN,NaN,NaN,NaN,NaN,NaN,0,0,0,0,NaN,NaN,NaN,NaN,0,0,0,0,0,22,22,22,NaN,NaN,NaN,NaN,NaN,NaN,NaN,NaN,NaN,NaN,NaN,NaN,NaN,NaN,NaN,NaN,NaN,NaN,NaN,NaN,NaN,,NaN,NaN,NaN,NaN,NaN,NaN,NaN,NaN,NaN,NaN,NaN,,,NaN,NaN,NaN,NaN,926.212807599921,926.212807599921,926.212807599921,926.212807599921,926.212807599921,2,0.983703699894249,ScrollUp,정답,927.199061799794,927.199061799794,927.699287099764,928.216060099658,NaN,,NaN,NaN,NaN,,,NaN,,,NaN,NaN,NaN,,NaN,NaN,NaN,NaN,NaN,NaN,NaN,10,51,여자,yes,yes,yes,yes,no,2023-07-28_10h15.28.383,Main,2022.2.4,60.2180375603356
24,넌 지혜로워,2,Orange,B,6.33333333333333,4.63333333333333,ScrollUp,ScrollDown,Orange.png,1,Positive,Incongruent,,,NaN,,,NaN,NaN,NaN,NaN,NaN,NaN,NaN,NaN,NaN,NaN,NaN,NaN,0,0,0,0,NaN,NaN,NaN,NaN,NaN,NaN,NaN,NaN,0,0,0,0,NaN,NaN,NaN,NaN,0,0,0,0,0,23,23,23,NaN,NaN,NaN,NaN,NaN,NaN,NaN,NaN,NaN,NaN,NaN,NaN,NaN,NaN,NaN,NaN,NaN,NaN,NaN,NaN,NaN,,NaN,NaN,NaN,NaN,NaN,NaN,NaN,NaN,NaN,NaN,NaN,,,NaN,NaN,NaN,NaN,928.216060099658,928.216060099658,928.216060099658,928.216060099658,928.216060099658,2,1.21617140015587,ScrollUp,정답,929.432926199865,929.432926199865,929.932536599692,930.441862799693,NaN,,NaN,NaN,NaN,,,NaN,,,NaN,NaN,NaN,,NaN,NaN,NaN,NaN,NaN,NaN,NaN,10,51,여자,yes,yes,yes,yes,no,2023-07-28_10h15.28.383,Main,2022.2.4,60.2180375603356
25,넌 시끄러워,4,Green,A,2.83333333333333,3.03333333333333,ScrollDown,ScrollUp,Green.png,1,Negative,Incongruent,,,NaN,,,NaN,NaN,NaN,NaN,NaN,NaN,NaN,NaN,NaN,NaN,NaN,NaN,0,0,0,0,NaN,NaN,NaN,NaN,NaN,NaN,NaN,NaN,0,0,0,0,NaN,NaN,NaN,NaN,0,0,0,0,0,24,24,24,NaN,NaN,NaN,NaN,NaN,NaN,NaN,NaN,NaN,NaN,NaN,NaN,NaN,NaN,NaN,NaN,NaN,NaN,NaN,NaN,NaN,,NaN,NaN,NaN,NaN,NaN,NaN,NaN,NaN,NaN,NaN,NaN,,,NaN,NaN,NaN,NaN,930.441862799693,930.441862799693,930.441862799693,930.441862799693,930.441862799693,1.2716049382716,0.967366400174797,ScrollDown,정답,931.415711499751,931.415711499751,931.915858000051,932.44358219998,NaN,,NaN,NaN,NaN,,,NaN,,,NaN,NaN,NaN,,NaN,NaN,NaN,NaN,NaN,NaN,NaN,10,51,여자,yes,yes,yes,yes,no,2023-07-28_10h15.28.383,Main,2022.2.4,60.2180375603356
26,넌 만사태평이야,3,Orange,B,4,4.33333333333333,ScrollUp,ScrollDown,Orange.png,1,Neutral,Neutral,,,NaN,,,NaN,NaN,NaN,NaN,NaN,NaN,NaN,NaN,NaN,NaN,NaN,NaN,0,0,0,0,NaN,NaN,NaN,NaN,NaN,NaN,NaN,NaN,0,0,0,0,NaN,NaN,NaN,NaN,0,0,0,0,0,25,25,25,NaN,NaN,NaN,NaN,NaN,NaN,NaN,NaN,NaN,NaN,NaN,NaN,NaN,NaN,NaN,NaN,NaN,NaN,NaN,NaN,NaN,,NaN,NaN,NaN,NaN,NaN,NaN,NaN,NaN,NaN,NaN,NaN,,,NaN,NaN,NaN,NaN,932.44358219998,932.44358219998,932.44358219998,932.44358219998,932.44358219998,1.99382716049383,0.88278830004856,ScrollUp,정답,933.315664999653,933.315664999653,933.815836399794,934.330337499734,NaN,,NaN,NaN,NaN,,,NaN,,,NaN,NaN,NaN,,NaN,NaN,NaN,NaN,NaN,NaN,NaN,10,51,여자,yes,yes,yes,yes,no,2023-07-28_10h15.28.383,Main,2022.2.4,60.2180375603356
27,넌 붙임성있어,1,Green,A,5.70833333333333,5.63333333333333,ScrollDown,ScrollUp,Green.png,1,Positive,Congruent,,,NaN,,,NaN,NaN,NaN,NaN,NaN,NaN,NaN,NaN,NaN,NaN,NaN,NaN,0,0,0,0,NaN,NaN,NaN,NaN,NaN,NaN,NaN,NaN,0,0,0,0,NaN,NaN,NaN,NaN,0,0,0,0,0,26,26,26,NaN,NaN,NaN,NaN,NaN,NaN,NaN,NaN,NaN,NaN,NaN,NaN,NaN,NaN,NaN,NaN,NaN,NaN,NaN,NaN,NaN,,NaN,NaN,NaN,NaN,NaN,NaN,NaN,NaN,NaN,NaN,NaN,,,NaN,NaN,NaN,NaN,934.330337499734,934.330337499734,934.330337499734,934.330337499734,934.330337499734,1.03858024691358,1.51667920034379,ScrollDown,정답,935.848999399692,935.848999399692,936.349237699993,936.855949399993,NaN,,NaN,NaN,NaN,,,NaN,,,NaN,NaN,NaN,,NaN,NaN,NaN,NaN,NaN,NaN,NaN,10,51,여자,yes,yes,yes,yes,no,2023-07-28_10h15.28.383,Main,2022.2.4,60.2180375603356
28,넌 영리해,2,Green,A,6,4.03333333333333,ScrollDown,ScrollUp,Green.png,1,Positive,Congruent,,,NaN,,,NaN,NaN,NaN,NaN,NaN,NaN,NaN,NaN,NaN,NaN,NaN,NaN,0,0,0,0,NaN,NaN,NaN,NaN,NaN,NaN,NaN,NaN,0,0,0,0,NaN,NaN,NaN,NaN,0,0,0,0,0,27,27,27,NaN,NaN,NaN,NaN,NaN,NaN,NaN,NaN,NaN,NaN,NaN,NaN,NaN,NaN,NaN,NaN,NaN,NaN,NaN,NaN,NaN,,NaN,NaN,NaN,NaN,NaN,NaN,NaN,NaN,NaN,NaN,NaN,,,NaN,NaN,NaN,NaN,936.855949399993,936.855949399993,936.855949399993,936.855949399993,936.855949399993,1.07407407407407,1.0174310002476,ScrollDown,정답,937.882560499944,937.882560499944,938.382638799958,938.891232499853,NaN,,NaN,NaN,NaN,,,NaN,,,NaN,NaN,NaN,,NaN,NaN,NaN,NaN,NaN,NaN,NaN,10,51,여자,yes,yes,yes,yes,no,2023-07-28_10h15.28.383,Main,2022.2.4,60.2180375603356
29,넌 열심이야,1,Orange,B,6.04166666666667,5.83333333333333,ScrollUp,ScrollDown,Orange.png,1,Positive,Incongruent,,,NaN,,,NaN,NaN,NaN,NaN,NaN,NaN,NaN,NaN,NaN,NaN,NaN,NaN,0,0,0,0,NaN,NaN,NaN,NaN,NaN,NaN,NaN,NaN,0,0,0,0,NaN,NaN,NaN,NaN,0,0,0,0,0,28,28,28,NaN,NaN,NaN,NaN,NaN,NaN,NaN,NaN,NaN,NaN,NaN,NaN,NaN,NaN,NaN,NaN,NaN,NaN,NaN,NaN,NaN,,NaN,NaN,NaN,NaN,NaN,NaN,NaN,NaN,NaN,NaN,NaN,,,NaN,NaN,NaN,NaN,938.891232499853,938.891232499853,938.891232499853,938.891232499853,938.891232499853,2,1.01754999998957,ScrollUp,정답,939.915684700012,939.915684700012,940.415731799789,940.928991300054,NaN,,NaN,NaN,NaN,,,NaN,,,NaN,NaN,NaN,,NaN,NaN,NaN,NaN,NaN,NaN,NaN,10,51,여자,yes,yes,yes,yes,no,2023-07-28_10h15.28.383,Main,2022.2.4,60.2180375603356
30,넌 인기없어,4,Orange,B,3,3.3,ScrollUp,ScrollDown,Orange.png,1,Negative,Congruent,,,NaN,,,NaN,NaN,NaN,NaN,NaN,NaN,NaN,NaN,NaN,NaN,NaN,NaN,0,0,0,0,NaN,NaN,NaN,NaN,NaN,NaN,NaN,NaN,0,0,0,0,NaN,NaN,NaN,NaN,0,0,0,0,0,29,29,29,NaN,NaN,NaN,NaN,NaN,NaN,NaN,NaN,NaN,NaN,NaN,NaN,NaN,NaN,NaN,NaN,NaN,NaN,NaN,NaN,NaN,,NaN,NaN,NaN,NaN,NaN,NaN,NaN,NaN,NaN,NaN,NaN,,,NaN,NaN,NaN,NaN,940.928991300054,940.928991300054,940.928991300054,940.928991300054,940.928991300054,1.10648148148148,0.93287289980799,ScrollDown,오답,941.865660499781,941.865660499781,942.365796799771,942.883170699701,NaN,,NaN,NaN,NaN,,,NaN,,,NaN,NaN,NaN,,NaN,NaN,NaN,NaN,NaN,NaN,NaN,10,51,여자,yes,yes,yes,yes,no,2023-07-28_10h15.28.383,Main,2022.2.4,60.2180375603356
31,넌 익살스러워,3,Green,A,4.70833333333333,4.83333333333333,ScrollDown,ScrollUp,Green.png,1,Neutral,Neutral,,,NaN,,,NaN,NaN,NaN,NaN,NaN,NaN,NaN,NaN,NaN,NaN,NaN,NaN,0,0,0,0,NaN,NaN,NaN,NaN,NaN,NaN,NaN,NaN,0,0,0,0,NaN,NaN,NaN,NaN,0,0,0,0,0,30,30,30,NaN,NaN,NaN,NaN,NaN,NaN,NaN,NaN,NaN,NaN,NaN,NaN,NaN,NaN,NaN,NaN,NaN,NaN,NaN,NaN,NaN,,NaN,NaN,NaN,NaN,NaN,NaN,NaN,NaN,NaN,NaN,NaN,,,NaN,NaN,NaN,NaN,942.883170699701,942.883170699701,942.883170699701,942.883170699701,942.883170699701,1.10648148148148,1.03282449999824,ScrollDown,정답,943.915727199987,943.915727199987,944.415857600048,944.922939199954,NaN,,NaN,NaN,NaN,,,NaN,,,NaN,NaN,NaN,,NaN,NaN,NaN,NaN,NaN,NaN,NaN,10,51,여자,yes,yes,yes,yes,no,2023-07-28_10h15.28.383,Main,2022.2.4,60.2180375603356
32,넌 이기적이야,5,Orange,B,2.29166666666667,2.33333333333333,ScrollUp,ScrollDown,Orange.png,1,Negative,Congruent,,,NaN,,,NaN,NaN,NaN,NaN,NaN,NaN,NaN,NaN,NaN,NaN,NaN,NaN,0,0,0,0,NaN,NaN,NaN,NaN,NaN,NaN,NaN,NaN,0,0,0,0,NaN,NaN,NaN,NaN,0,0,0,0,0,31,31,31,NaN,NaN,NaN,NaN,NaN,NaN,NaN,NaN,NaN,NaN,NaN,NaN,NaN,NaN,NaN,NaN,NaN,NaN,NaN,NaN,NaN,,NaN,NaN,NaN,NaN,NaN,NaN,NaN,NaN,NaN,NaN,NaN,,,NaN,NaN,NaN,NaN,944.922939199954,944.922939199954,944.922939199954,944.922939199954,944.922939199954,2,0.932765699923038,ScrollUp,정답,945.866099500097,945.866099500097,946.365633599926,946.873420000076,NaN,,NaN,NaN,NaN,,,NaN,,,NaN,NaN,NaN,,NaN,NaN,NaN,NaN,NaN,NaN,NaN,10,51,여자,yes,yes,yes,yes,no,2023-07-28_10h15.28.383,Main,2022.2.4,60.2180375603356
33,나를 데려가줘,6,Orange,B,0,0,ScrollDown,ScrollUp,Orange.png,1,NonTarget,NonTarget,,,NaN,,,NaN,NaN,NaN,NaN,NaN,NaN,NaN,NaN,NaN,NaN,NaN,NaN,0,0,0,0,NaN,NaN,NaN,NaN,NaN,NaN,NaN,NaN,0,0,0,0,NaN,NaN,NaN,NaN,0,0,0,0,0,32,32,32,NaN,NaN,NaN,NaN,NaN,NaN,NaN,NaN,NaN,NaN,NaN,NaN,NaN,NaN,NaN,NaN,NaN,NaN,NaN,NaN,NaN,,NaN,NaN,NaN,NaN,NaN,NaN,NaN,NaN,NaN,NaN,NaN,,,NaN,NaN,NaN,NaN,946.873420000076,946.873420000076,946.873420000076,946.873420000076,946.873420000076,2,0.932009300217032,ScrollUp,오답,947.815715400036,947.815715400036,948.315834799781,948.831728199963,NaN,,NaN,NaN,NaN,,,NaN,,,NaN,NaN,NaN,,NaN,NaN,NaN,NaN,NaN,NaN,NaN,10,51,여자,yes,yes,yes,yes,no,2023-07-28_10h15.28.383,Main,2022.2.4,60.2180375603356
34,넌 기회주의자야,5,Green,A,2.875,2.13333333333333,ScrollDown,ScrollUp,Green.png,1,Negative,Incongruent,,,NaN,,,NaN,NaN,NaN,NaN,NaN,NaN,NaN,NaN,NaN,NaN,NaN,NaN,0,0,0,0,NaN,NaN,NaN,NaN,NaN,NaN,NaN,NaN,0,0,0,0,NaN,NaN,NaN,NaN,0,0,0,0,0,33,33,33,NaN,NaN,NaN,NaN,NaN,NaN,NaN,NaN,NaN,NaN,NaN,NaN,NaN,NaN,NaN,NaN,NaN,NaN,NaN,NaN,NaN,,NaN,NaN,NaN,NaN,NaN,NaN,NaN,NaN,NaN,NaN,NaN,,,NaN,NaN,NaN,NaN,948.831728199963,948.831728199963,948.831728199963,948.831728199963,948.831728199963,1.07716049382716,1.04896859964356,ScrollDown,정답,949.882749899756,949.882749899756,950.382559599821,950.884157699998,NaN,,NaN,NaN,NaN,,,NaN,,,NaN,NaN,NaN,,NaN,NaN,NaN,NaN,NaN,NaN,NaN,10,51,여자,yes,yes,yes,yes,no,2023-07-28_10h15.28.383,Main,2022.2.4,60.2180375603356
NaN,,NaN,,,NaN,NaN,,,,NaN,,,,,NaN,,,NaN,NaN,NaN,NaN,NaN,NaN,NaN,NaN,NaN,NaN,NaN,NaN,0,0,0,0,NaN,NaN,NaN,NaN,NaN,NaN,NaN,NaN,0,0,0,0,NaN,NaN,NaN,NaN,0,0,0,0,NaN,NaN,NaN,NaN,0,0,0,0,NaN,NaN,NaN,NaN,NaN,NaN,NaN,NaN,NaN,NaN,NaN,NaN,NaN,NaN,NaN,NaN,NaN,,NaN,NaN,NaN,NaN,NaN,NaN,NaN,NaN,NaN,NaN,NaN,,,NaN,NaN,NaN,NaN,NaN,NaN,NaN,NaN,NaN,NaN,NaN,,,NaN,NaN,NaN,NaN,2,,NaN,NaN,NaN,,,NaN,,,NaN,NaN,NaN,,NaN,NaN,NaN,NaN,NaN,NaN,NaN,10,51,여자,yes,yes,yes,yes,no,2023-07-28_10h15.28.383,Main,2022.2.4,60.2180375603356
NaN,,NaN,,,NaN,NaN,,,,NaN,,,,,NaN,,,NaN,NaN,NaN,NaN,NaN,NaN,NaN,NaN,NaN,NaN,NaN,NaN,0,0,0,0,NaN,NaN,NaN,NaN,NaN,NaN,NaN,NaN,0,0,0,0,NaN,NaN,NaN,NaN,0,0,0,0,NaN,NaN,NaN,NaN,NaN,NaN,NaN,NaN,NaN,NaN,NaN,NaN,NaN,NaN,NaN,NaN,NaN,NaN,NaN,NaN,NaN,NaN,NaN,NaN,NaN,,NaN,NaN,NaN,NaN,NaN,NaN,NaN,NaN,NaN,NaN,NaN,,,NaN,NaN,NaN,NaN,NaN,NaN,NaN,NaN,NaN,NaN,NaN,,,NaN,NaN,NaN,NaN,NaN,,NaN,NaN,NaN,,,NaN,,,NaN,NaN,NaN,,NaN,NaN,NaN,NaN,NaN,NaN,NaN,10,51,여자,yes,yes,yes,yes,no,2023-07-28_10h15.28.383,Main,2022.2.4,60.2180375603356
1,넌 미성숙해,4,Green,A,3,3.2,ScrollDown,ScrollUp,Green.png,2,Negative,Incongruent,,,NaN,,,NaN,NaN,NaN,NaN,NaN,NaN,NaN,NaN,NaN,NaN,NaN,NaN,0,0,0,0,NaN,NaN,NaN,NaN,NaN,NaN,NaN,NaN,0,0,0,0,NaN,NaN,NaN,NaN,1,0,1,0,0,0,0,0,NaN,NaN,NaN,NaN,NaN,NaN,NaN,NaN,NaN,NaN,NaN,NaN,NaN,NaN,NaN,NaN,NaN,NaN,NaN,NaN,NaN,,NaN,NaN,NaN,NaN,NaN,NaN,NaN,NaN,NaN,NaN,NaN,,,NaN,NaN,NaN,NaN,990.017150499858,990.017150499858,990.017150499858,990.017150499858,990.017150499858,2,2.05520909978077,ScrollUp,오답,992.082545999903,992.082545999903,992.582815099973,993.094173799735,NaN,,NaN,NaN,NaN,,,NaN,,,NaN,NaN,NaN,,NaN,NaN,NaN,NaN,NaN,NaN,NaN,10,51,여자,yes,yes,yes,yes,no,2023-07-28_10h15.28.383,Main,2022.2.4,60.2180375603356
2,넌 반사회적이야,5,Orange,B,2.41666666666667,2.03333333333333,ScrollUp,ScrollDown,Orange.png,2,Negative,Congruent,,,NaN,,,NaN,NaN,NaN,NaN,NaN,NaN,NaN,NaN,NaN,NaN,NaN,NaN,0,0,0,0,NaN,NaN,NaN,NaN,NaN,NaN,NaN,NaN,0,0,0,0,NaN,NaN,NaN,NaN,1,0,1,0,0,1,1,1,NaN,NaN,NaN,NaN,NaN,NaN,NaN,NaN,NaN,NaN,NaN,NaN,NaN,NaN,NaN,NaN,NaN,NaN,NaN,NaN,NaN,,NaN,NaN,NaN,NaN,NaN,NaN,NaN,NaN,NaN,NaN,NaN,,,NaN,NaN,NaN,NaN,993.094173799735,993.094173799735,993.094173799735,993.094173799735,993.094173799735,1.68981481481481,1.44875610014424,ScrollUp,정답,994.549125999678,994.549125999678,995.049327699933,995.560206499882,NaN,,NaN,NaN,NaN,,,NaN,,,NaN,NaN,NaN,,NaN,NaN,NaN,NaN,NaN,NaN,NaN,10,51,여자,yes,yes,yes,yes,no,2023-07-28_10h15.28.383,Main,2022.2.4,60.2180375603356
3,넌 유능해,2,Green,A,6.20833333333333,4.43333333333333,ScrollDown,ScrollUp,Green.png,2,Positive,Congruent,,,NaN,,,NaN,NaN,NaN,NaN,NaN,NaN,NaN,NaN,NaN,NaN,NaN,NaN,0,0,0,0,NaN,NaN,NaN,NaN,NaN,NaN,NaN,NaN,0,0,0,0,NaN,NaN,NaN,NaN,1,0,1,0,0,2,2,2,NaN,NaN,NaN,NaN,NaN,NaN,NaN,NaN,NaN,NaN,NaN,NaN,NaN,NaN,NaN,NaN,NaN,NaN,NaN,NaN,NaN,,NaN,NaN,NaN,NaN,NaN,NaN,NaN,NaN,NaN,NaN,NaN,,,NaN,NaN,NaN,NaN,995.560206499882,995.560206499882,995.560206499882,995.560206499882,995.560206499882,1.20216049382716,1.03231339994818,ScrollDown,정답,996.599189199973,996.599189199973,997.099160999991,997.605601199903,NaN,,NaN,NaN,NaN,,,NaN,,,NaN,NaN,NaN,,NaN,NaN,NaN,NaN,NaN,NaN,NaN,10,51,여자,yes,yes,yes,yes,no,2023-07-28_10h15.28.383,Main,2022.2.4,60.2180375603356
4,넌 능숙해,2,Orange,B,5.66666666666667,4.73333333333333,ScrollUp,ScrollDown,Orange.png,2,Positive,Incongruent,,,NaN,,,NaN,NaN,NaN,NaN,NaN,NaN,NaN,NaN,NaN,NaN,NaN,NaN,0,0,0,0,NaN,NaN,NaN,NaN,NaN,NaN,NaN,NaN,0,0,0,0,NaN,NaN,NaN,NaN,1,0,1,0,0,3,3,3,NaN,NaN,NaN,NaN,NaN,NaN,NaN,NaN,NaN,NaN,NaN,NaN,NaN,NaN,NaN,NaN,NaN,NaN,NaN,NaN,NaN,,NaN,NaN,NaN,NaN,NaN,NaN,NaN,NaN,NaN,NaN,NaN,,,NaN,NaN,NaN,NaN,997.605601199903,997.605601199903,997.605601199903,997.605601199903,997.605601199903,1.74074074074074,0.849703299812973,ScrollUp,정답,998.465659199748,998.465659199748,998.966121299658,999.479482699651,NaN,,NaN,NaN,NaN,,,NaN,,,NaN,NaN,NaN,,NaN,NaN,NaN,NaN,NaN,NaN,NaN,10,51,여자,yes,yes,yes,yes,no,2023-07-28_10h15.28.383,Main,2022.2.4,60.2180375603356
5,넌 진부해,4,Orange,B,2.45833333333333,3.16666666666667,ScrollUp,ScrollDown,Orange.png,2,Negative,Congruent,,,NaN,,,NaN,NaN,NaN,NaN,NaN,NaN,NaN,NaN,NaN,NaN,NaN,NaN,0,0,0,0,NaN,NaN,NaN,NaN,NaN,NaN,NaN,NaN,0,0,0,0,NaN,NaN,NaN,NaN,1,0,1,0,0,4,4,4,NaN,NaN,NaN,NaN,NaN,NaN,NaN,NaN,NaN,NaN,NaN,NaN,NaN,NaN,NaN,NaN,NaN,NaN,NaN,NaN,NaN,,NaN,NaN,NaN,NaN,NaN,NaN,NaN,NaN,NaN,NaN,NaN,,,NaN,NaN,NaN,NaN,999.479482699651,999.479482699651,999.479482699651,999.479482699651,999.479482699651,1.70061728395062,0.949055300094187,ScrollUp,정답,1000.43246049993,1000.43246049993,1000.93255989999,1001.4392883,NaN,,NaN,NaN,NaN,,,NaN,,,NaN,NaN,NaN,,NaN,NaN,NaN,NaN,NaN,NaN,NaN,10,51,여자,yes,yes,yes,yes,no,2023-07-28_10h15.28.383,Main,2022.2.4,60.2180375603356
6,나를 보내줘,6,Green,A,0,0,ScrollUp,ScrollDown,Green.png,2,NonTarget,NonTarget,,,NaN,,,NaN,NaN,NaN,NaN,NaN,NaN,NaN,NaN,NaN,NaN,NaN,NaN,0,0,0,0,NaN,NaN,NaN,NaN,NaN,NaN,NaN,NaN,0,0,0,0,NaN,NaN,NaN,NaN,1,0,1,0,0,5,5,5,NaN,NaN,NaN,NaN,NaN,NaN,NaN,NaN,NaN,NaN,NaN,NaN,NaN,NaN,NaN,NaN,NaN,NaN,NaN,NaN,NaN,,NaN,NaN,NaN,NaN,NaN,NaN,NaN,NaN,NaN,NaN,NaN,,,NaN,NaN,NaN,NaN,1001.4392883,1001.4392883,1001.4392883,1001.4392883,1001.4392883,1.34567901234568,0.765887100249529,ScrollDown,오답,1002.21581269987,1002.21581269987,1002.71577049978,1003.2256827997,NaN,,NaN,NaN,NaN,,,NaN,,,NaN,NaN,NaN,,NaN,NaN,NaN,NaN,NaN,NaN,NaN,10,51,여자,yes,yes,yes,yes,no,2023-07-28_10h15.28.383,Main,2022.2.4,60.2180375603356
7,넌 엄격해,3,Green,A,4.16666666666667,4.1,ScrollDown,ScrollUp,Green.png,2,Neutral,Neutral,,,NaN,,,NaN,NaN,NaN,NaN,NaN,NaN,NaN,NaN,NaN,NaN,NaN,NaN,0,0,0,0,NaN,NaN,NaN,NaN,NaN,NaN,NaN,NaN,0,0,0,0,NaN,NaN,NaN,NaN,1,0,1,0,0,6,6,6,NaN,NaN,NaN,NaN,NaN,NaN,NaN,NaN,NaN,NaN,NaN,NaN,NaN,NaN,NaN,NaN,NaN,NaN,NaN,NaN,NaN,,NaN,NaN,NaN,NaN,NaN,NaN,NaN,NaN,NaN,NaN,NaN,,,NaN,NaN,NaN,NaN,1003.2256827997,1003.2256827997,1003.2256827997,1003.2256827997,1003.2256827997,1.41358024691358,1.14896239992231,ScrollDown,정답,1004.38251279993,1004.38251279993,1004.88268159982,1005.38825389976,NaN,,NaN,NaN,NaN,,,NaN,,,NaN,NaN,NaN,,NaN,NaN,NaN,NaN,NaN,NaN,NaN,10,51,여자,yes,yes,yes,yes,no,2023-07-28_10h15.28.383,Main,2022.2.4,60.2180375603356
8,나를 보내줘,6,Green,A,0,0,ScrollUp,ScrollDown,Green.png,2,NonTarget,NonTarget,,,NaN,,,NaN,NaN,NaN,NaN,NaN,NaN,NaN,NaN,NaN,NaN,NaN,NaN,0,0,0,0,NaN,NaN,NaN,NaN,NaN,NaN,NaN,NaN,0,0,0,0,NaN,NaN,NaN,NaN,1,0,1,0,0,7,7,7,NaN,NaN,NaN,NaN,NaN,NaN,NaN,NaN,NaN,NaN,NaN,NaN,NaN,NaN,NaN,NaN,NaN,NaN,NaN,NaN,NaN,,NaN,NaN,NaN,NaN,NaN,NaN,NaN,NaN,NaN,NaN,NaN,,,NaN,NaN,NaN,NaN,1005.38825389976,1005.38825389976,1005.38825389976,1005.38825389976,1005.38825389976,1.16666666666667,0.899807599838823,ScrollDown,오답,1006.29932769993,1006.29932769993,1006.79910920002,1007.32144879969,NaN,,NaN,NaN,NaN,,,NaN,,,NaN,NaN,NaN,,NaN,NaN,NaN,NaN,NaN,NaN,NaN,10,51,여자,yes,yes,yes,yes,no,2023-07-28_10h15.28.383,Main,2022.2.4,60.2180375603356
9,넌 대담해,3,Orange,B,4.875,4.86666666666667,ScrollUp,ScrollDown,Orange.png,2,Neutral,Neutral,,,NaN,,,NaN,NaN,NaN,NaN,NaN,NaN,NaN,NaN,NaN,NaN,NaN,NaN,0,0,0,0,NaN,NaN,NaN,NaN,NaN,NaN,NaN,NaN,0,0,0,0,NaN,NaN,NaN,NaN,1,0,1,0,0,8,8,8,NaN,NaN,NaN,NaN,NaN,NaN,NaN,NaN,NaN,NaN,NaN,NaN,NaN,NaN,NaN,NaN,NaN,NaN,NaN,NaN,NaN,,NaN,NaN,NaN,NaN,NaN,NaN,NaN,NaN,NaN,NaN,NaN,,,NaN,NaN,NaN,NaN,1007.32144879969,1007.32144879969,1007.32144879969,1007.32144879969,1007.32144879969,1.87808641975309,0.932328199967742,ScrollUp,정답,1008.24902139977,1008.24902139977,1008.7494386998,1009.25947610009,NaN,,NaN,NaN,NaN,,,NaN,,,NaN,NaN,NaN,,NaN,NaN,NaN,NaN,NaN,NaN,NaN,10,51,여자,yes,yes,yes,yes,no,2023-07-28_10h15.28.383,Main,2022.2.4,60.2180375603356
10,넌 꾸준해,1,Green,A,5.91666666666667,5.8,ScrollDown,ScrollUp,Green.png,2,Positive,Congruent,,,NaN,,,NaN,NaN,NaN,NaN,NaN,NaN,NaN,NaN,NaN,NaN,NaN,NaN,0,0,0,0,NaN,NaN,NaN,NaN,NaN,NaN,NaN,NaN,0,0,0,0,NaN,NaN,NaN,NaN,1,0,1,0,0,9,9,9,NaN,NaN,NaN,NaN,NaN,NaN,NaN,NaN,NaN,NaN,NaN,NaN,NaN,NaN,NaN,NaN,NaN,NaN,NaN,NaN,NaN,,NaN,NaN,NaN,NaN,NaN,NaN,NaN,NaN,NaN,NaN,NaN,,,NaN,NaN,NaN,NaN,1009.25947610009,1009.25947610009,1009.25947610009,1009.25947610009,1009.25947610009,1.19753086419753,2.19958350015804,ScrollDown,정답,1011.46571390005,1011.46571390005,1011.96579100005,1012.47628360009,NaN,,NaN,NaN,NaN,,,NaN,,,NaN,NaN,NaN,,NaN,NaN,NaN,NaN,NaN,NaN,NaN,10,51,여자,yes,yes,yes,yes,no,2023-07-28_10h15.28.383,Main,2022.2.4,60.2180375603356
11,나를 데려가줘,6,Orange,B,0,0,ScrollDown,ScrollUp,Orange.png,2,NonTarget,NonTarget,,,NaN,,,NaN,NaN,NaN,NaN,NaN,NaN,NaN,NaN,NaN,NaN,NaN,NaN,0,0,0,0,NaN,NaN,NaN,NaN,NaN,NaN,NaN,NaN,0,0,0,0,NaN,NaN,NaN,NaN,1,0,1,0,0,10,10,10,NaN,NaN,NaN,NaN,NaN,NaN,NaN,NaN,NaN,NaN,NaN,NaN,NaN,NaN,NaN,NaN,NaN,NaN,NaN,NaN,NaN,,NaN,NaN,NaN,NaN,NaN,NaN,NaN,NaN,NaN,NaN,NaN,,,NaN,NaN,NaN,NaN,1012.47628360009,1012.47628360009,1012.47628360009,1012.47628360009,1012.47628360009,1.88117283950617,0.914295200258493,ScrollUp,오답,1013.3992240997,1013.3992240997,1013.89928600006,1014.40988699999,NaN,,NaN,NaN,NaN,,,NaN,,,NaN,NaN,NaN,,NaN,NaN,NaN,NaN,NaN,NaN,NaN,10,51,여자,yes,yes,yes,yes,no,2023-07-28_10h15.28.383,Main,2022.2.4,60.2180375603356
12,넌 독선적이야,5,Green,A,2.45833333333333,1.93333333333333,ScrollDown,ScrollUp,Green.png,2,Negative,Incongruent,,,NaN,,,NaN,NaN,NaN,NaN,NaN,NaN,NaN,NaN,NaN,NaN,NaN,NaN,0,0,0,0,NaN,NaN,NaN,NaN,NaN,NaN,NaN,NaN,0,0,0,0,NaN,NaN,NaN,NaN,1,0,1,0,0,11,11,11,NaN,NaN,NaN,NaN,NaN,NaN,NaN,NaN,NaN,NaN,NaN,NaN,NaN,NaN,NaN,NaN,NaN,NaN,NaN,NaN,NaN,,NaN,NaN,NaN,NaN,NaN,NaN,NaN,NaN,NaN,NaN,NaN,,,NaN,NaN,NaN,NaN,1014.40988699999,1014.40988699999,1014.40988699999,1014.40988699999,1014.40988699999,1.21450617283951,0.816980199888349,ScrollDown,정답,1015.23271569982,1015.23271569982,1015.73298419965,1016.23792429967,NaN,,NaN,NaN,NaN,,,NaN,,,NaN,NaN,NaN,,NaN,NaN,NaN,NaN,NaN,NaN,NaN,10,51,여자,yes,yes,yes,yes,no,2023-07-28_10h15.28.383,Main,2022.2.4,60.2180375603356
13,나를 보내줘,6,Green,A,0,0,ScrollUp,ScrollDown,Green.png,2,NonTarget,NonTarget,,,NaN,,,NaN,NaN,NaN,NaN,NaN,NaN,NaN,NaN,NaN,NaN,NaN,NaN,0,0,0,0,NaN,NaN,NaN,NaN,NaN,NaN,NaN,NaN,0,0,0,0,NaN,NaN,NaN,NaN,1,0,1,0,0,12,12,12,NaN,NaN,NaN,NaN,NaN,NaN,NaN,NaN,NaN,NaN,NaN,NaN,NaN,NaN,NaN,NaN,NaN,NaN,NaN,NaN,NaN,,NaN,NaN,NaN,NaN,NaN,NaN,NaN,NaN,NaN,NaN,NaN,,,NaN,NaN,NaN,NaN,1016.23792429967,1016.23792429967,1016.23792429967,1016.23792429967,1016.23792429967,1.14506172839506,1.11635140003636,ScrollDown,오답,1017.3671244001,1017.3671244001,1017.88283819985,NaN,NaN,,NaN,NaN,NaN,,,NaN,,,NaN,NaN,NaN,,NaN,NaN,NaN,NaN,NaN,NaN,NaN,10,51,여자,yes,yes,yes,yes,no,2023-07-28_10h15.28.383,Main,2022.2.4,60.2180375603356
14,넌 책임감있어,1,Orange,B,6.34782608695652,6,ScrollUp,ScrollDown,Orange.png,2,Positive,Incongruent,,,NaN,,,NaN,NaN,NaN,NaN,NaN,NaN,NaN,NaN,NaN,NaN,NaN,NaN,0,0,0,0,NaN,NaN,NaN,NaN,NaN,NaN,NaN,NaN,0,0,0,0,NaN,NaN,NaN,NaN,1,0,1,0,0,13,13,13,NaN,NaN,NaN,NaN,NaN,NaN,NaN,NaN,NaN,NaN,NaN,NaN,NaN,NaN,NaN,NaN,NaN,NaN,NaN,NaN,NaN,,NaN,NaN,NaN,NaN,NaN,NaN,NaN,NaN,NaN,NaN,NaN,,,NaN,NaN,NaN,NaN,1018.3983196998,1018.3983196998,1018.3983196998,1018.3983196998,1018.3983196998,2,0.800285200122744,ScrollUp,정답,1019.1990708001,1019.1990708001,1019.69931040006,1020.21015359974,NaN,,NaN,NaN,NaN,,,NaN,,,NaN,NaN,NaN,,NaN,NaN,NaN,NaN,NaN,NaN,NaN,10,51,여자,yes,yes,yes,yes,no,2023-07-28_10h15.28.383,Main,2022.2.4,60.2180375603356
15,넌 문학적이야,3,Green,A,4.70833333333333,4.33333333333333,ScrollDown,ScrollUp,Green.png,2,Neutral,Neutral,,,NaN,,,NaN,NaN,NaN,NaN,NaN,NaN,NaN,NaN,NaN,NaN,NaN,NaN,0,0,0,0,NaN,NaN,NaN,NaN,NaN,NaN,NaN,NaN,0,0,0,0,NaN,NaN,NaN,NaN,1,0,1,0,0,14,14,14,NaN,NaN,NaN,NaN,NaN,NaN,NaN,NaN,NaN,NaN,NaN,NaN,NaN,NaN,NaN,NaN,NaN,NaN,NaN,NaN,NaN,,NaN,NaN,NaN,NaN,NaN,NaN,NaN,NaN,NaN,NaN,NaN,,,NaN,NaN,NaN,NaN,1020.21015359974,1020.21015359974,1020.21015359974,1020.21015359974,1020.21015359974,1.69753086419753,1.39978440012783,ScrollUp,오답,1021.61574529996,1021.61574529996,1022.11678959988,1022.62312830007,NaN,,NaN,NaN,NaN,,,NaN,,,NaN,NaN,NaN,,NaN,NaN,NaN,NaN,NaN,NaN,NaN,10,51,여자,yes,yes,yes,yes,no,2023-07-28_10h15.28.383,Main,2022.2.4,60.2180375603356
16,넌 재미있어,1,Orange,B,5.875,5.7,ScrollUp,ScrollDown,Orange.png,2,Positive,Incongruent,,,NaN,,,NaN,NaN,NaN,NaN,NaN,NaN,NaN,NaN,NaN,NaN,NaN,NaN,0,0,0,0,NaN,NaN,NaN,NaN,NaN,NaN,NaN,NaN,0,0,0,0,NaN,NaN,NaN,NaN,1,0,1,0,0,15,15,15,NaN,NaN,NaN,NaN,NaN,NaN,NaN,NaN,NaN,NaN,NaN,NaN,NaN,NaN,NaN,NaN,NaN,NaN,NaN,NaN,NaN,,NaN,NaN,NaN,NaN,NaN,NaN,NaN,NaN,NaN,NaN,NaN,,,NaN,NaN,NaN,NaN,1022.62312830007,1022.62312830007,1022.62312830007,1022.62312830007,1022.62312830007,1.68055555555556,0.866137200035155,ScrollUp,정답,1023.49914109986,1023.49914109986,1023.99908219976,1024.50654609967,NaN,,NaN,NaN,NaN,,,NaN,,,NaN,NaN,NaN,,NaN,NaN,NaN,NaN,NaN,NaN,NaN,10,51,여자,yes,yes,yes,yes,no,2023-07-28_10h15.28.383,Main,2022.2.4,60.2180375603356
17,나를 데려가줘,6,Orange,B,0,0,ScrollDown,ScrollUp,Orange.png,2,NonTarget,NonTarget,,,NaN,,,NaN,NaN,NaN,NaN,NaN,NaN,NaN,NaN,NaN,NaN,NaN,NaN,0,0,0,0,NaN,NaN,NaN,NaN,NaN,NaN,NaN,NaN,0,0,0,0,NaN,NaN,NaN,NaN,1,0,1,0,0,16,16,16,NaN,NaN,NaN,NaN,NaN,NaN,NaN,NaN,NaN,NaN,NaN,NaN,NaN,NaN,NaN,NaN,NaN,NaN,NaN,NaN,NaN,,NaN,NaN,NaN,NaN,NaN,NaN,NaN,NaN,NaN,NaN,NaN,,,NaN,NaN,NaN,NaN,1024.50654609967,1024.50654609967,1024.50654609967,1024.50654609967,1024.50654609967,1.64197530864198,0.782432499807328,ScrollUp,오답,1025.29930280009,1025.29930280009,1025.79996440001,1026.31126970006,NaN,,NaN,NaN,NaN,,,NaN,,,NaN,NaN,NaN,,NaN,NaN,NaN,NaN,NaN,NaN,NaN,10,51,여자,yes,yes,yes,yes,no,2023-07-28_10h15.28.383,Main,2022.2.4,60.2180375603356
18,넌 협력적이야,1,Green,A,5.625,5.63333333333333,ScrollDown,ScrollUp,Green.png,2,Positive,Congruent,,,NaN,,,NaN,NaN,NaN,NaN,NaN,NaN,NaN,NaN,NaN,NaN,NaN,NaN,0,0,0,0,NaN,NaN,NaN,NaN,NaN,NaN,NaN,NaN,0,0,0,0,NaN,NaN,NaN,NaN,1,0,1,0,0,17,17,17,NaN,NaN,NaN,NaN,NaN,NaN,NaN,NaN,NaN,NaN,NaN,NaN,NaN,NaN,NaN,NaN,NaN,NaN,NaN,NaN,NaN,,NaN,NaN,NaN,NaN,NaN,NaN,NaN,NaN,NaN,NaN,NaN,,,NaN,NaN,NaN,NaN,1026.31126970006,1026.31126970006,1026.31126970006,1026.31126970006,1026.31126970006,1.30864197530864,0.916513200383633,ScrollDown,정답,1027.23263280001,1027.23263280001,1027.73259849986,1028.24158249982,NaN,,NaN,NaN,NaN,,,NaN,,,NaN,NaN,NaN,,NaN,NaN,NaN,NaN,NaN,NaN,NaN,10,51,여자,yes,yes,yes,yes,no,2023-07-28_10h15.28.383,Main,2022.2.4,60.2180375603356
19,넌 평범해,3,Orange,B,4.33333333333333,4.23333333333333,ScrollUp,ScrollDown,Orange.png,2,Neutral,Neutral,,,NaN,,,NaN,NaN,NaN,NaN,NaN,NaN,NaN,NaN,NaN,NaN,NaN,NaN,0,0,0,0,NaN,NaN,NaN,NaN,NaN,NaN,NaN,NaN,0,0,0,0,NaN,NaN,NaN,NaN,1,0,1,0,0,18,18,18,NaN,NaN,NaN,NaN,NaN,NaN,NaN,NaN,NaN,NaN,NaN,NaN,NaN,NaN,NaN,NaN,NaN,NaN,NaN,NaN,NaN,,NaN,NaN,NaN,NaN,NaN,NaN,NaN,NaN,NaN,NaN,NaN,,,NaN,NaN,NaN,NaN,1028.24158249982,1028.24158249982,1028.24158249982,1028.24158249982,1028.24158249982,1.77623456790123,0.782315200194716,ScrollUp,정답,1029.03254080005,1029.03254080005,1029.53259199997,1030.03954669973,NaN,,NaN,NaN,NaN,,,NaN,,,NaN,NaN,NaN,,NaN,NaN,NaN,NaN,NaN,NaN,NaN,10,51,여자,yes,yes,yes,yes,no,2023-07-28_10h15.28.383,Main,2022.2.4,60.2180375603356
20,넌 오만해,5,Green,A,2.33333333333333,2,ScrollDown,ScrollUp,Green.png,2,Negative,Incongruent,,,NaN,,,NaN,NaN,NaN,NaN,NaN,NaN,NaN,NaN,NaN,NaN,NaN,NaN,0,0,0,0,NaN,NaN,NaN,NaN,NaN,NaN,NaN,NaN,0,0,0,0,NaN,NaN,NaN,NaN,1,0,1,0,0,19,19,19,NaN,NaN,NaN,NaN,NaN,NaN,NaN,NaN,NaN,NaN,NaN,NaN,NaN,NaN,NaN,NaN,NaN,NaN,NaN,NaN,NaN,,NaN,NaN,NaN,NaN,NaN,NaN,NaN,NaN,NaN,NaN,NaN,,,NaN,NaN,NaN,NaN,1030.03954669973,1030.03954669973,1030.03954669973,1030.03954669973,1030.03954669973,1.16820987654321,0.833903899881989,ScrollDown,정답,1030.88244449999,1030.88244449999,1031.38313440001,1031.89322079998,NaN,,NaN,NaN,NaN,,,NaN,,,NaN,NaN,NaN,,NaN,NaN,NaN,NaN,NaN,NaN,NaN,10,51,여자,yes,yes,yes,yes,no,2023-07-28_10h15.28.383,Main,2022.2.4,60.2180375603356
21,넌 운이없어,4,Orange,B,3,3.46666666666667,ScrollUp,ScrollDown,Orange.png,2,Negative,Congruent,,,NaN,,,NaN,NaN,NaN,NaN,NaN,NaN,NaN,NaN,NaN,NaN,NaN,NaN,0,0,0,0,NaN,NaN,NaN,NaN,NaN,NaN,NaN,NaN,0,0,0,0,NaN,NaN,NaN,NaN,1,0,1,0,0,20,20,20,NaN,NaN,NaN,NaN,NaN,NaN,NaN,NaN,NaN,NaN,NaN,NaN,NaN,NaN,NaN,NaN,NaN,NaN,NaN,NaN,NaN,,NaN,NaN,NaN,NaN,NaN,NaN,NaN,NaN,NaN,NaN,NaN,,,NaN,NaN,NaN,NaN,1031.89322079998,1031.89322079998,1031.89322079998,1031.89322079998,1031.89322079998,1.84413580246914,0.766197400167584,ScrollUp,정답,1032.66555419983,1032.66555419983,1033.16619549971,1033.67575929966,NaN,,NaN,NaN,NaN,,,NaN,,,NaN,NaN,NaN,,NaN,NaN,NaN,NaN,NaN,NaN,NaN,10,51,여자,yes,yes,yes,yes,no,2023-07-28_10h15.28.383,Main,2022.2.4,60.2180375603356
22,넌 창조적이야,2,Orange,B,6.125,4.63333333333333,ScrollUp,ScrollDown,Orange.png,2,Positive,Incongruent,,,NaN,,,NaN,NaN,NaN,NaN,NaN,NaN,NaN,NaN,NaN,NaN,NaN,NaN,0,0,0,0,NaN,NaN,NaN,NaN,NaN,NaN,NaN,NaN,0,0,0,0,NaN,NaN,NaN,NaN,1,0,1,0,0,21,21,21,NaN,NaN,NaN,NaN,NaN,NaN,NaN,NaN,NaN,NaN,NaN,NaN,NaN,NaN,NaN,NaN,NaN,NaN,NaN,NaN,NaN,,NaN,NaN,NaN,NaN,NaN,NaN,NaN,NaN,NaN,NaN,NaN,,,NaN,NaN,NaN,NaN,1033.67575929966,1033.67575929966,1033.67575929966,1033.67575929966,1033.67575929966,1.72685185185185,0.96549930004403,ScrollUp,정답,1034.64946480002,1034.64946480002,1035.14925929997,1035.65452389978,NaN,,NaN,NaN,NaN,,,NaN,,,NaN,NaN,NaN,,NaN,NaN,NaN,NaN,NaN,NaN,NaN,10,51,여자,yes,yes,yes,yes,no,2023-07-28_10h15.28.383,Main,2022.2.4,60.2180375603356
23,나를 보내줘,6,Green,A,0,0,ScrollUp,ScrollDown,Green.png,2,NonTarget,NonTarget,,,NaN,,,NaN,NaN,NaN,NaN,NaN,NaN,NaN,NaN,NaN,NaN,NaN,NaN,0,0,0,0,NaN,NaN,NaN,NaN,NaN,NaN,NaN,NaN,0,0,0,0,NaN,NaN,NaN,NaN,1,0,1,0,0,22,22,22,NaN,NaN,NaN,NaN,NaN,NaN,NaN,NaN,NaN,NaN,NaN,NaN,NaN,NaN,NaN,NaN,NaN,NaN,NaN,NaN,NaN,,NaN,NaN,NaN,NaN,NaN,NaN,NaN,NaN,NaN,NaN,NaN,,,NaN,NaN,NaN,NaN,1035.65452389978,1035.65452389978,1035.65452389978,1035.65452389978,1035.65452389978,1.4320987654321,0.783121999818832,ScrollDown,오답,1036.44902489986,1036.44902489986,1036.94912969973,1037.47209089994,NaN,,NaN,NaN,NaN,,,NaN,,,NaN,NaN,NaN,,NaN,NaN,NaN,NaN,NaN,NaN,NaN,10,51,여자,yes,yes,yes,yes,no,2023-07-28_10h15.28.383,Main,2022.2.4,60.2180375603356
24,넌 통찰력있어,2,Green,A,6.5,4.8,ScrollDown,ScrollUp,Green.png,2,Positive,Congruent,,,NaN,,,NaN,NaN,NaN,NaN,NaN,NaN,NaN,NaN,NaN,NaN,NaN,NaN,0,0,0,0,NaN,NaN,NaN,NaN,NaN,NaN,NaN,NaN,0,0,0,0,NaN,NaN,NaN,NaN,1,0,1,0,0,23,23,23,NaN,NaN,NaN,NaN,NaN,NaN,NaN,NaN,NaN,NaN,NaN,NaN,NaN,NaN,NaN,NaN,NaN,NaN,NaN,NaN,NaN,,NaN,NaN,NaN,NaN,NaN,NaN,NaN,NaN,NaN,NaN,NaN,,,NaN,NaN,NaN,NaN,1037.47209089994,1037.47209089994,1037.47209089994,1037.47209089994,1037.47209089994,1.78703703703704,0.682777100242674,ScrollUp,오답,1038.14904699987,1038.14904699987,1038.6491862,1039.16319429968,NaN,,NaN,NaN,NaN,,,NaN,,,NaN,NaN,NaN,,NaN,NaN,NaN,NaN,NaN,NaN,NaN,10,51,여자,yes,yes,yes,yes,no,2023-07-28_10h15.28.383,Main,2022.2.4,60.2180375603356
25,넌 경솔해,5,Orange,B,2.45833333333333,2.26666666666667,ScrollUp,ScrollDown,Orange.png,2,Negative,Congruent,,,NaN,,,NaN,NaN,NaN,NaN,NaN,NaN,NaN,NaN,NaN,NaN,NaN,NaN,0,0,0,0,NaN,NaN,NaN,NaN,NaN,NaN,NaN,NaN,0,0,0,0,NaN,NaN,NaN,NaN,1,0,1,0,0,24,24,24,NaN,NaN,NaN,NaN,NaN,NaN,NaN,NaN,NaN,NaN,NaN,NaN,NaN,NaN,NaN,NaN,NaN,NaN,NaN,NaN,NaN,,NaN,NaN,NaN,NaN,NaN,NaN,NaN,NaN,NaN,NaN,NaN,,,NaN,NaN,NaN,NaN,1039.16319429968,1039.16319429968,1039.16319429968,1039.16319429968,1039.16319429968,1.61882716049383,0.666214699856937,ScrollUp,정답,1039.8327639997,1039.8327639997,1040.33258679975,1040.8424792001,NaN,,NaN,NaN,NaN,,,NaN,,,NaN,NaN,NaN,,NaN,NaN,NaN,NaN,NaN,NaN,NaN,10,51,여자,yes,yes,yes,yes,no,2023-07-28_10h15.28.383,Main,2022.2.4,60.2180375603356
26,넌 초조해,4,Green,A,2.91666666666667,3.13333333333333,ScrollDown,ScrollUp,Green.png,2,Negative,Incongruent,,,NaN,,,NaN,NaN,NaN,NaN,NaN,NaN,NaN,NaN,NaN,NaN,NaN,NaN,0,0,0,0,NaN,NaN,NaN,NaN,NaN,NaN,NaN,NaN,0,0,0,0,NaN,NaN,NaN,NaN,1,0,1,0,0,25,25,25,NaN,NaN,NaN,NaN,NaN,NaN,NaN,NaN,NaN,NaN,NaN,NaN,NaN,NaN,NaN,NaN,NaN,NaN,NaN,NaN,NaN,,NaN,NaN,NaN,NaN,NaN,NaN,NaN,NaN,NaN,NaN,NaN,,,NaN,NaN,NaN,NaN,1040.8424792001,1040.8424792001,1040.8424792001,1040.8424792001,1040.8424792001,1.20524691358025,0.798873400315642,ScrollDown,정답,1041.64899619995,1041.64899619995,1042.14905969985,1042.65779599966,NaN,,NaN,NaN,NaN,,,NaN,,,NaN,NaN,NaN,,NaN,NaN,NaN,NaN,NaN,NaN,NaN,10,51,여자,yes,yes,yes,yes,no,2023-07-28_10h15.28.383,Main,2022.2.4,60.2180375603356
27,넌 무관심해,4,Orange,B,2.83333333333333,2.9,ScrollUp,ScrollDown,Orange.png,2,Negative,Congruent,,,NaN,,,NaN,NaN,NaN,NaN,NaN,NaN,NaN,NaN,NaN,NaN,NaN,NaN,0,0,0,0,NaN,NaN,NaN,NaN,NaN,NaN,NaN,NaN,0,0,0,0,NaN,NaN,NaN,NaN,1,0,1,0,0,26,26,26,NaN,NaN,NaN,NaN,NaN,NaN,NaN,NaN,NaN,NaN,NaN,NaN,NaN,NaN,NaN,NaN,NaN,NaN,NaN,NaN,NaN,,NaN,NaN,NaN,NaN,NaN,NaN,NaN,NaN,NaN,NaN,NaN,,,NaN,NaN,NaN,NaN,1042.65779599966,1042.65779599966,1042.65779599966,1042.65779599966,1042.65779599966,1.77932098765432,1.14851959981024,ScrollUp,정답,1043.81603559991,1043.81603559991,1044.31573669985,1044.81978939986,NaN,,NaN,NaN,NaN,,,NaN,,,NaN,NaN,NaN,,NaN,NaN,NaN,NaN,NaN,NaN,NaN,10,51,여자,yes,yes,yes,yes,no,2023-07-28_10h15.28.383,Main,2022.2.4,60.2180375603356
28,넌 감성적이야,3,Orange,B,4.125,4.16666666666667,ScrollUp,ScrollDown,Orange.png,2,Neutral,Neutral,,,NaN,,,NaN,NaN,NaN,NaN,NaN,NaN,NaN,NaN,NaN,NaN,NaN,NaN,0,0,0,0,NaN,NaN,NaN,NaN,NaN,NaN,NaN,NaN,0,0,0,0,NaN,NaN,NaN,NaN,1,0,1,0,0,27,27,27,NaN,NaN,NaN,NaN,NaN,NaN,NaN,NaN,NaN,NaN,NaN,NaN,NaN,NaN,NaN,NaN,NaN,NaN,NaN,NaN,NaN,,NaN,NaN,NaN,NaN,NaN,NaN,NaN,NaN,NaN,NaN,NaN,,,NaN,NaN,NaN,NaN,1044.81978939986,1044.81978939986,1044.81978939986,1044.81978939986,1044.81978939986,1.57098765432099,0.584261399693787,ScrollUp,정답,1045.41596690007,1045.41596690007,1045.91598200006,1046.42826419976,NaN,,NaN,NaN,NaN,,,NaN,,,NaN,NaN,NaN,,NaN,NaN,NaN,NaN,NaN,NaN,NaN,10,51,여자,yes,yes,yes,yes,no,2023-07-28_10h15.28.383,Main,2022.2.4,60.2180375603356
29,넌 배려심있어,1,Green,A,6.08333333333333,5.5,ScrollDown,ScrollUp,Green.png,2,Positive,Congruent,,,NaN,,,NaN,NaN,NaN,NaN,NaN,NaN,NaN,NaN,NaN,NaN,NaN,NaN,0,0,0,0,NaN,NaN,NaN,NaN,NaN,NaN,NaN,NaN,0,0,0,0,NaN,NaN,NaN,NaN,1,0,1,0,0,28,28,28,NaN,NaN,NaN,NaN,NaN,NaN,NaN,NaN,NaN,NaN,NaN,NaN,NaN,NaN,NaN,NaN,NaN,NaN,NaN,NaN,NaN,,NaN,NaN,NaN,NaN,NaN,NaN,NaN,NaN,NaN,NaN,NaN,,,NaN,NaN,NaN,NaN,1046.42826419976,1046.42826419976,1046.42826419976,1046.42826419976,1046.42826419976,1.50308641975309,1.28186280000955,NoResponse,무응답,1047.71573300008,1047.71573300008,1048.21572829969,1048.72468139976,NaN,,NaN,NaN,NaN,,,NaN,,,NaN,NaN,NaN,,NaN,NaN,NaN,NaN,NaN,NaN,NaN,10,51,여자,yes,yes,yes,yes,no,2023-07-28_10h15.28.383,Main,2022.2.4,60.2180375603356
30,넌 숨김없어,3,Green,A,4.5,4.93333333333333,ScrollDown,ScrollUp,Green.png,2,Neutral,Neutral,,,NaN,,,NaN,NaN,NaN,NaN,NaN,NaN,NaN,NaN,NaN,NaN,NaN,NaN,0,0,0,0,NaN,NaN,NaN,NaN,NaN,NaN,NaN,NaN,0,0,0,0,NaN,NaN,NaN,NaN,1,0,1,0,0,29,29,29,NaN,NaN,NaN,NaN,NaN,NaN,NaN,NaN,NaN,NaN,NaN,NaN,NaN,NaN,NaN,NaN,NaN,NaN,NaN,NaN,NaN,,NaN,NaN,NaN,NaN,NaN,NaN,NaN,NaN,NaN,NaN,NaN,,,NaN,NaN,NaN,NaN,1048.72468139976,1048.72468139976,1048.72468139976,1048.72468139976,1048.72468139976,1.89814814814815,0.983372499700636,ScrollUp,오답,1049.71567069972,1049.71567069972,1050.21577209979,1050.72662269976,NaN,,NaN,NaN,NaN,,,NaN,,,NaN,NaN,NaN,,NaN,NaN,NaN,NaN,NaN,NaN,NaN,10,51,여자,yes,yes,yes,yes,no,2023-07-28_10h15.28.383,Main,2022.2.4,60.2180375603356
31,넌 훌륭해,2,Orange,B,5.91666666666667,4.03333333333333,ScrollUp,ScrollDown,Orange.png,2,Positive,Incongruent,,,NaN,,,NaN,NaN,NaN,NaN,NaN,NaN,NaN,NaN,NaN,NaN,NaN,NaN,0,0,0,0,NaN,NaN,NaN,NaN,NaN,NaN,NaN,NaN,0,0,0,0,NaN,NaN,NaN,NaN,1,0,1,0,0,30,30,30,NaN,NaN,NaN,NaN,NaN,NaN,NaN,NaN,NaN,NaN,NaN,NaN,NaN,NaN,NaN,NaN,NaN,NaN,NaN,NaN,NaN,,NaN,NaN,NaN,NaN,NaN,NaN,NaN,NaN,NaN,NaN,NaN,,,NaN,NaN,NaN,NaN,1050.72662269976,1050.72662269976,1050.72662269976,1050.72662269976,1050.72662269976,1.8966049382716,0.898621399886906,ScrollUp,정답,1051.63303609984,1051.63303609984,1052.13260799972,1052.64302209998,NaN,,NaN,NaN,NaN,,,NaN,,,NaN,NaN,NaN,,NaN,NaN,NaN,NaN,NaN,NaN,NaN,10,51,여자,yes,yes,yes,yes,no,2023-07-28_10h15.28.383,Main,2022.2.4,60.2180375603356
32,넌 슬기로워,2,Green,A,6.16666666666667,4.1,ScrollDown,ScrollUp,Green.png,2,Positive,Congruent,,,NaN,,,NaN,NaN,NaN,NaN,NaN,NaN,NaN,NaN,NaN,NaN,NaN,NaN,0,0,0,0,NaN,NaN,NaN,NaN,NaN,NaN,NaN,NaN,0,0,0,0,NaN,NaN,NaN,NaN,1,0,1,0,0,31,31,31,NaN,NaN,NaN,NaN,NaN,NaN,NaN,NaN,NaN,NaN,NaN,NaN,NaN,NaN,NaN,NaN,NaN,NaN,NaN,NaN,NaN,,NaN,NaN,NaN,NaN,NaN,NaN,NaN,NaN,NaN,NaN,NaN,,,NaN,NaN,NaN,NaN,1052.64302209998,1052.64302209998,1052.64302209998,1052.64302209998,1052.64302209998,1.18827160493827,0.866101500112563,ScrollDown,정답,1053.51562329987,1053.51562329987,1054.01638309984,1054.52483539982,NaN,,NaN,NaN,NaN,,,NaN,,,NaN,NaN,NaN,,NaN,NaN,NaN,NaN,NaN,NaN,NaN,10,51,여자,yes,yes,yes,yes,no,2023-07-28_10h15.28.383,Main,2022.2.4,60.2180375603356
33,넌 냉혹해,5,Green,A,2.58333333333333,2.1,ScrollDown,ScrollUp,Green.png,2,Negative,Incongruent,,,NaN,,,NaN,NaN,NaN,NaN,NaN,NaN,NaN,NaN,NaN,NaN,NaN,NaN,0,0,0,0,NaN,NaN,NaN,NaN,NaN,NaN,NaN,NaN,0,0,0,0,NaN,NaN,NaN,NaN,1,0,1,0,0,32,32,32,NaN,NaN,NaN,NaN,NaN,NaN,NaN,NaN,NaN,NaN,NaN,NaN,NaN,NaN,NaN,NaN,NaN,NaN,NaN,NaN,NaN,,NaN,NaN,NaN,NaN,NaN,NaN,NaN,NaN,NaN,NaN,NaN,,,NaN,NaN,NaN,NaN,1054.52483539982,1054.52483539982,1054.52483539982,1054.52483539982,1054.52483539982,1.30092592592593,0.748482800088823,ScrollDown,정답,1055.28255499993,1055.28255499993,1055.78317379998,1056.29007699993,NaN,,NaN,NaN,NaN,,,NaN,,,NaN,NaN,NaN,,NaN,NaN,NaN,NaN,NaN,NaN,NaN,10,51,여자,yes,yes,yes,yes,no,2023-07-28_10h15.28.383,Main,2022.2.4,60.2180375603356
34,나를 데려가줘,6,Orange,B,0,0,ScrollDown,ScrollUp,Orange.png,2,NonTarget,NonTarget,,,NaN,,,NaN,NaN,NaN,NaN,NaN,NaN,NaN,NaN,NaN,NaN,NaN,NaN,0,0,0,0,NaN,NaN,NaN,NaN,NaN,NaN,NaN,NaN,0,0,0,0,NaN,NaN,NaN,NaN,1,0,1,0,0,33,33,33,NaN,NaN,NaN,NaN,NaN,NaN,NaN,NaN,NaN,NaN,NaN,NaN,NaN,NaN,NaN,NaN,NaN,NaN,NaN,NaN,NaN,,NaN,NaN,NaN,NaN,NaN,NaN,NaN,NaN,NaN,NaN,NaN,,,NaN,NaN,NaN,NaN,1056.29007699993,1056.29007699993,1056.29007699993,1056.29007699993,1056.29007699993,1.77469135802469,0.765703099779785,ScrollUp,오답,1057.06650860002,1057.06650860002,1057.56578319985,1058.08265039977,NaN,,NaN,NaN,NaN,,,NaN,,,NaN,NaN,NaN,,NaN,NaN,NaN,NaN,NaN,NaN,NaN,10,51,여자,yes,yes,yes,yes,no,2023-07-28_10h15.28.383,Main,2022.2.4,60.2180375603356
35,넌 편파적이야,5,Orange,B,2.125,2,ScrollUp,ScrollDown,Orange.png,2,Negative,Congruent,,,NaN,,,NaN,NaN,NaN,NaN,NaN,NaN,NaN,NaN,NaN,NaN,NaN,NaN,0,0,0,0,NaN,NaN,NaN,NaN,NaN,NaN,NaN,NaN,0,0,0,0,NaN,NaN,NaN,NaN,1,0,1,0,0,34,34,34,NaN,NaN,NaN,NaN,NaN,NaN,NaN,NaN,NaN,NaN,NaN,NaN,NaN,NaN,NaN,NaN,NaN,NaN,NaN,NaN,NaN,,NaN,NaN,NaN,NaN,NaN,NaN,NaN,NaN,NaN,NaN,NaN,,,NaN,NaN,NaN,NaN,1058.08265039977,1058.08265039977,1058.08265039977,1058.08265039977,1058.08265039977,1.48611111111111,0.700963700190187,NoResponse,무응답,1058.78287359979,1058.78287359979,1059.28361220006,1059.78917660005,NaN,,NaN,NaN,NaN,,,NaN,,,NaN,NaN,NaN,,NaN,NaN,NaN,NaN,NaN,NaN,NaN,10,51,여자,yes,yes,yes,yes,no,2023-07-28_10h15.28.383,Main,2022.2.4,60.2180375603356
36,넌 슬퍼,4,Green,A,2.58333333333333,3.06666666666667,ScrollDown,ScrollUp,Green.png,2,Negative,Incongruent,,,NaN,,,NaN,NaN,NaN,NaN,NaN,NaN,NaN,NaN,NaN,NaN,NaN,NaN,0,0,0,0,NaN,NaN,NaN,NaN,NaN,NaN,NaN,NaN,0,0,0,0,NaN,NaN,NaN,NaN,1,0,1,0,0,35,35,35,NaN,NaN,NaN,NaN,NaN,NaN,NaN,NaN,NaN,NaN,NaN,NaN,NaN,NaN,NaN,NaN,NaN,NaN,NaN,NaN,NaN,,NaN,NaN,NaN,NaN,NaN,NaN,NaN,NaN,NaN,NaN,NaN,,,NaN,NaN,NaN,NaN,1059.78917660005,1059.78917660005,1059.78917660005,1059.78917660005,1059.78917660005,1.2962962962963,1.04977610008791,ScrollDown,정답,1060.8489612001,1060.8489612001,1061.34900539974,1061.85788800009,NaN,,NaN,NaN,NaN,,,NaN,,,NaN,NaN,NaN,,NaN,NaN,NaN,NaN,NaN,NaN,NaN,10,51,여자,yes,yes,yes,yes,no,2023-07-28_10h15.28.383,Main,2022.2.4,60.2180375603356
37,나를 데려가줘,6,Orange,B,0,0,ScrollDown,ScrollUp,Orange.png,2,NonTarget,NonTarget,,,NaN,,,NaN,NaN,NaN,NaN,NaN,NaN,NaN,NaN,NaN,NaN,NaN,NaN,0,0,0,0,NaN,NaN,NaN,NaN,NaN,NaN,NaN,NaN,0,0,0,0,NaN,NaN,NaN,NaN,1,0,1,0,0,36,36,36,NaN,NaN,NaN,NaN,NaN,NaN,NaN,NaN,NaN,NaN,NaN,NaN,NaN,NaN,NaN,NaN,NaN,NaN,NaN,NaN,NaN,,NaN,NaN,NaN,NaN,NaN,NaN,NaN,NaN,NaN,NaN,NaN,,,NaN,NaN,NaN,NaN,1061.85788800009,1061.85788800009,1061.85788800009,1061.85788800009,1061.85788800009,1.92901234567901,1.06503510009497,ScrollUp,오답,1062.9324587998,1062.9324587998,1063.43252829975,1063.93961389968,NaN,,NaN,NaN,NaN,,,NaN,,,NaN,NaN,NaN,,NaN,NaN,NaN,NaN,NaN,NaN,NaN,10,51,여자,yes,yes,yes,yes,no,2023-07-28_10h15.28.383,Main,2022.2.4,60.2180375603356
38,넌 친절해,1,Orange,B,6.04166666666667,5.53333333333333,ScrollUp,ScrollDown,Orange.png,2,Positive,Incongruent,,,NaN,,,NaN,NaN,NaN,NaN,NaN,NaN,NaN,NaN,NaN,NaN,NaN,NaN,0,0,0,0,NaN,NaN,NaN,NaN,NaN,NaN,NaN,NaN,0,0,0,0,NaN,NaN,NaN,NaN,1,0,1,0,0,37,37,37,NaN,NaN,NaN,NaN,NaN,NaN,NaN,NaN,NaN,NaN,NaN,NaN,NaN,NaN,NaN,NaN,NaN,NaN,NaN,NaN,NaN,,NaN,NaN,NaN,NaN,NaN,NaN,NaN,NaN,NaN,NaN,NaN,,,NaN,NaN,NaN,NaN,1063.93961389968,1063.93961389968,1063.93961389968,1063.93961389968,1063.93961389968,1.78858024691358,1.05261190002784,ScrollUp,정답,1064.99897179985,1064.99897179985,1065.49964099983,1065.99960179999,NaN,,NaN,NaN,NaN,,,NaN,,,NaN,NaN,NaN,,NaN,NaN,NaN,NaN,NaN,NaN,NaN,10,51,여자,yes,yes,yes,yes,no,2023-07-28_10h15.28.383,Main,2022.2.4,60.2180375603356
NaN,,NaN,,,NaN,NaN,,,,NaN,,,,,NaN,,,NaN,NaN,NaN,NaN,NaN,NaN,NaN,NaN,NaN,NaN,NaN,NaN,0,0,0,0,NaN,NaN,NaN,NaN,NaN,NaN,NaN,NaN,0,0,0,0,NaN,NaN,NaN,NaN,1,0,1,0,NaN,NaN,NaN,NaN,0,0,0,0,NaN,NaN,NaN,NaN,NaN,NaN,NaN,NaN,NaN,NaN,NaN,NaN,NaN,NaN,NaN,NaN,NaN,,NaN,NaN,NaN,NaN,NaN,NaN,NaN,NaN,NaN,NaN,NaN,,,NaN,NaN,NaN,NaN,NaN,NaN,NaN,NaN,NaN,NaN,NaN,,,NaN,NaN,NaN,NaN,3,,NaN,NaN,NaN,,,NaN,,,NaN,NaN,NaN,,NaN,NaN,NaN,NaN,NaN,NaN,NaN,10,51,여자,yes,yes,yes,yes,no,2023-07-28_10h15.28.383,Main,2022.2.4,60.2180375603356
NaN,,NaN,,,NaN,NaN,,,,NaN,,,,,NaN,,,NaN,NaN,NaN,NaN,NaN,NaN,NaN,NaN,NaN,NaN,NaN,NaN,0,0,0,0,NaN,NaN,NaN,NaN,NaN,NaN,NaN,NaN,0,0,0,0,NaN,NaN,NaN,NaN,1,0,1,0,NaN,NaN,NaN,NaN,NaN,NaN,NaN,NaN,NaN,NaN,NaN,NaN,NaN,NaN,NaN,NaN,NaN,NaN,NaN,NaN,NaN,NaN,NaN,NaN,NaN,,NaN,NaN,NaN,NaN,NaN,NaN,NaN,NaN,NaN,NaN,NaN,,,NaN,NaN,NaN,NaN,NaN,NaN,NaN,NaN,NaN,NaN,NaN,,,NaN,NaN,NaN,NaN,NaN,,NaN,NaN,NaN,,,NaN,,,NaN,NaN,NaN,,NaN,NaN,NaN,NaN,NaN,NaN,NaN,10,51,여자,yes,yes,yes,yes,no,2023-07-28_10h15.28.383,Main,2022.2.4,60.2180375603356
1,넌 엉성해,4,Green,A,3,3.3,ScrollDown,ScrollUp,Green.png,3,Negative,Incongruent,,,NaN,,,NaN,NaN,NaN,NaN,NaN,NaN,NaN,NaN,NaN,NaN,NaN,NaN,0,0,0,0,NaN,NaN,NaN,NaN,NaN,NaN,NaN,NaN,0,0,0,0,NaN,NaN,NaN,NaN,2,0,2,0,0,0,0,0,NaN,NaN,NaN,NaN,NaN,NaN,NaN,NaN,NaN,NaN,NaN,NaN,NaN,NaN,NaN,NaN,NaN,NaN,NaN,NaN,NaN,,NaN,NaN,NaN,NaN,NaN,NaN,NaN,NaN,NaN,NaN,NaN,,,NaN,NaN,NaN,NaN,1104.64040389983,1104.64040389983,1104.64040389983,1104.64040389983,1104.64040389983,1.30092592592593,2.85320950020105,ScrollDown,정답,1107.49899729993,1107.49899729993,1107.9989883001,1108.5047594998,NaN,,NaN,NaN,NaN,,,NaN,,,NaN,NaN,NaN,,NaN,NaN,NaN,NaN,NaN,NaN,NaN,10,51,여자,yes,yes,yes,yes,no,2023-07-28_10h15.28.383,Main,2022.2.4,60.2180375603356
2,나를 보내줘,6,Green,A,0,0,ScrollUp,ScrollDown,Green.png,3,NonTarget,NonTarget,,,NaN,,,NaN,NaN,NaN,NaN,NaN,NaN,NaN,NaN,NaN,NaN,NaN,NaN,0,0,0,0,NaN,NaN,NaN,NaN,NaN,NaN,NaN,NaN,0,0,0,0,NaN,NaN,NaN,NaN,2,0,2,0,0,1,1,1,NaN,NaN,NaN,NaN,NaN,NaN,NaN,NaN,NaN,NaN,NaN,NaN,NaN,NaN,NaN,NaN,NaN,NaN,NaN,NaN,NaN,,NaN,NaN,NaN,NaN,NaN,NaN,NaN,NaN,NaN,NaN,NaN,,,NaN,NaN,NaN,NaN,1108.5047594998,1108.5047594998,1108.5047594998,1108.5047594998,1108.5047594998,1.27932098765432,0.849335200153291,ScrollDown,오답,1109.36587690003,1109.36587690003,1109.8657833999,1110.37562219985,NaN,,NaN,NaN,NaN,,,NaN,,,NaN,NaN,NaN,,NaN,NaN,NaN,NaN,NaN,NaN,NaN,10,51,여자,yes,yes,yes,yes,no,2023-07-28_10h15.28.383,Main,2022.2.4,60.2180375603356
3,넌 활발해,1,Orange,B,5.66666666666667,5.6,ScrollUp,ScrollDown,Orange.png,3,Positive,Incongruent,,,NaN,,,NaN,NaN,NaN,NaN,NaN,NaN,NaN,NaN,NaN,NaN,NaN,NaN,0,0,0,0,NaN,NaN,NaN,NaN,NaN,NaN,NaN,NaN,0,0,0,0,NaN,NaN,NaN,NaN,2,0,2,0,0,2,2,2,NaN,NaN,NaN,NaN,NaN,NaN,NaN,NaN,NaN,NaN,NaN,NaN,NaN,NaN,NaN,NaN,NaN,NaN,NaN,NaN,NaN,,NaN,NaN,NaN,NaN,NaN,NaN,NaN,NaN,NaN,NaN,NaN,,,NaN,NaN,NaN,NaN,1110.37562219985,1110.37562219985,1110.37562219985,1110.37562219985,1110.37562219985,1.57561728395062,1.18318169983104,ScrollUp,정답,1111.56566229975,1111.56566229975,1112.0657279999,1112.57749400008,NaN,,NaN,NaN,NaN,,,NaN,,,NaN,NaN,NaN,,NaN,NaN,NaN,NaN,NaN,NaN,NaN,10,51,여자,yes,yes,yes,yes,no,2023-07-28_10h15.28.383,Main,2022.2.4,60.2180375603356
4,넌 논리적이야,2,Green,A,5.66666666666667,4.63333333333333,ScrollDown,ScrollUp,Green.png,3,Positive,Congruent,,,NaN,,,NaN,NaN,NaN,NaN,NaN,NaN,NaN,NaN,NaN,NaN,NaN,NaN,0,0,0,0,NaN,NaN,NaN,NaN,NaN,NaN,NaN,NaN,0,0,0,0,NaN,NaN,NaN,NaN,2,0,2,0,0,3,3,3,NaN,NaN,NaN,NaN,NaN,NaN,NaN,NaN,NaN,NaN,NaN,NaN,NaN,NaN,NaN,NaN,NaN,NaN,NaN,NaN,NaN,,NaN,NaN,NaN,NaN,NaN,NaN,NaN,NaN,NaN,NaN,NaN,,,NaN,NaN,NaN,NaN,1112.57749400008,1112.57749400008,1112.57749400008,1112.57749400008,1112.57749400008,1.37037037037037,0.884427600074559,ScrollDown,정답,1113.46596359974,1113.46596359974,1113.96589289978,1114.4768749997,NaN,,NaN,NaN,NaN,,,NaN,,,NaN,NaN,NaN,,NaN,NaN,NaN,NaN,NaN,NaN,NaN,10,51,여자,yes,yes,yes,yes,no,2023-07-28_10h15.28.383,Main,2022.2.4,60.2180375603356
5,넌 과묵해,3,Green,A,3.875,4.4,ScrollDown,ScrollUp,Green.png,3,Neutral,Neutral,,,NaN,,,NaN,NaN,NaN,NaN,NaN,NaN,NaN,NaN,NaN,NaN,NaN,NaN,0,0,0,0,NaN,NaN,NaN,NaN,NaN,NaN,NaN,NaN,0,0,0,0,NaN,NaN,NaN,NaN,2,0,2,0,0,4,4,4,NaN,NaN,NaN,NaN,NaN,NaN,NaN,NaN,NaN,NaN,NaN,NaN,NaN,NaN,NaN,NaN,NaN,NaN,NaN,NaN,NaN,,NaN,NaN,NaN,NaN,NaN,NaN,NaN,NaN,NaN,NaN,NaN,,,NaN,NaN,NaN,NaN,1114.4768749997,1114.4768749997,1114.4768749997,1114.4768749997,1114.4768749997,1.41358024691358,0.631528600119054,ScrollDown,정답,1115.1156020998,1115.1156020998,1115.61577240005,1116.12539639976,NaN,,NaN,NaN,NaN,,,NaN,,,NaN,NaN,NaN,,NaN,NaN,NaN,NaN,NaN,NaN,NaN,10,51,여자,yes,yes,yes,yes,no,2023-07-28_10h15.28.383,Main,2022.2.4,60.2180375603356
6,나를 데려가줘,6,Orange,B,0,0,ScrollDown,ScrollUp,Orange.png,3,NonTarget,NonTarget,,,NaN,,,NaN,NaN,NaN,NaN,NaN,NaN,NaN,NaN,NaN,NaN,NaN,NaN,0,0,0,0,NaN,NaN,NaN,NaN,NaN,NaN,NaN,NaN,0,0,0,0,NaN,NaN,NaN,NaN,2,0,2,0,0,5,5,5,NaN,NaN,NaN,NaN,NaN,NaN,NaN,NaN,NaN,NaN,NaN,NaN,NaN,NaN,NaN,NaN,NaN,NaN,NaN,NaN,NaN,,NaN,NaN,NaN,NaN,NaN,NaN,NaN,NaN,NaN,NaN,NaN,,,NaN,NaN,NaN,NaN,1116.12539639976,1116.12539639976,1116.12539639976,1116.12539639976,1116.12539639976,1.31481481481481,1.21670869970694,ScrollDown,정답,1117.34887879994,1117.34887879994,1117.84896739991,1118.35511359992,NaN,,NaN,NaN,NaN,,,NaN,,,NaN,NaN,NaN,,NaN,NaN,NaN,NaN,NaN,NaN,NaN,10,51,여자,yes,yes,yes,yes,no,2023-07-28_10h15.28.383,Main,2022.2.4,60.2180375603356
7,넌 미숙해,4,Orange,B,3,3,ScrollUp,ScrollDown,Orange.png,3,Negative,Congruent,,,NaN,,,NaN,NaN,NaN,NaN,NaN,NaN,NaN,NaN,NaN,NaN,NaN,NaN,0,0,0,0,NaN,NaN,NaN,NaN,NaN,NaN,NaN,NaN,0,0,0,0,NaN,NaN,NaN,NaN,2,0,2,0,0,6,6,6,NaN,NaN,NaN,NaN,NaN,NaN,NaN,NaN,NaN,NaN,NaN,NaN,NaN,NaN,NaN,NaN,NaN,NaN,NaN,NaN,NaN,,NaN,NaN,NaN,NaN,NaN,NaN,NaN,NaN,NaN,NaN,NaN,,,NaN,NaN,NaN,NaN,1118.35511359992,1118.35511359992,1118.35511359992,1118.35511359992,1118.35511359992,1.75617283950617,1.58327970001847,ScrollUp,정답,1119.94899330009,1119.94899330009,1120.44909580005,1120.95919289999,NaN,,NaN,NaN,NaN,,,NaN,,,NaN,NaN,NaN,,NaN,NaN,NaN,NaN,NaN,NaN,NaN,10,51,여자,yes,yes,yes,yes,no,2023-07-28_10h15.28.383,Main,2022.2.4,60.2180375603356
8,나를 보내줘,6,Green,A,0,0,ScrollUp,ScrollDown,Green.png,3,NonTarget,NonTarget,,,NaN,,,NaN,NaN,NaN,NaN,NaN,NaN,NaN,NaN,NaN,NaN,NaN,NaN,0,0,0,0,NaN,NaN,NaN,NaN,NaN,NaN,NaN,NaN,0,0,0,0,NaN,NaN,NaN,NaN,2,0,2,0,0,7,7,7,NaN,NaN,NaN,NaN,NaN,NaN,NaN,NaN,NaN,NaN,NaN,NaN,NaN,NaN,NaN,NaN,NaN,NaN,NaN,NaN,NaN,,NaN,NaN,NaN,NaN,NaN,NaN,NaN,NaN,NaN,NaN,NaN,,,NaN,NaN,NaN,NaN,1120.95919289999,1120.95919289999,1120.95919289999,1120.95919289999,1120.95919289999,1.48148148148148,0.747498599812388,NoResponse,무응답,1121.71566769993,1121.71566769993,1122.21594309993,1122.7235683999,NaN,,NaN,NaN,NaN,,,NaN,,,NaN,NaN,NaN,,NaN,NaN,NaN,NaN,NaN,NaN,NaN,10,51,여자,yes,yes,yes,yes,no,2023-07-28_10h15.28.383,Main,2022.2.4,60.2180375603356
9,넌 자신만만해,3,Orange,B,4.83333333333333,4.33333333333333,ScrollUp,ScrollDown,Orange.png,3,Neutral,Neutral,,,NaN,,,NaN,NaN,NaN,NaN,NaN,NaN,NaN,NaN,NaN,NaN,NaN,NaN,0,0,0,0,NaN,NaN,NaN,NaN,NaN,NaN,NaN,NaN,0,0,0,0,NaN,NaN,NaN,NaN,2,0,2,0,0,8,8,8,NaN,NaN,NaN,NaN,NaN,NaN,NaN,NaN,NaN,NaN,NaN,NaN,NaN,NaN,NaN,NaN,NaN,NaN,NaN,NaN,NaN,,NaN,NaN,NaN,NaN,NaN,NaN,NaN,NaN,NaN,NaN,NaN,,,NaN,NaN,NaN,NaN,1122.7235683999,1122.7235683999,1122.7235683999,1122.7235683999,1122.7235683999,1.63734567901235,0.848489100113511,ScrollUp,정답,1123.58253260003,1123.58253260003,1124.08263649978,1124.60643949965,NaN,,NaN,NaN,NaN,,,NaN,,,NaN,NaN,NaN,,NaN,NaN,NaN,NaN,NaN,NaN,NaN,10,51,여자,yes,yes,yes,yes,no,2023-07-28_10h15.28.383,Main,2022.2.4,60.2180375603356
10,넌 탐욕스러워,5,Green,A,2.25,2.1,ScrollDown,ScrollUp,Green.png,3,Negative,Incongruent,,,NaN,,,NaN,NaN,NaN,NaN,NaN,NaN,NaN,NaN,NaN,NaN,NaN,NaN,0,0,0,0,NaN,NaN,NaN,NaN,NaN,NaN,NaN,NaN,0,0,0,0,NaN,NaN,NaN,NaN,2,0,2,0,0,9,9,9,NaN,NaN,NaN,NaN,NaN,NaN,NaN,NaN,NaN,NaN,NaN,NaN,NaN,NaN,NaN,NaN,NaN,NaN,NaN,NaN,NaN,,NaN,NaN,NaN,NaN,NaN,NaN,NaN,NaN,NaN,NaN,NaN,,,NaN,NaN,NaN,NaN,1124.60643949965,1124.60643949965,1124.60643949965,1124.60643949965,1124.60643949965,1.24228395061728,1.01654420001432,ScrollDown,정답,1125.61588939978,1125.61588939978,1126.11611909978,1126.62141030002,NaN,,NaN,NaN,NaN,,,NaN,,,NaN,NaN,NaN,,NaN,NaN,NaN,NaN,NaN,NaN,NaN,10,51,여자,yes,yes,yes,yes,no,2023-07-28_10h15.28.383,Main,2022.2.4,60.2180375603356
11,넌 인기있어,2,Green,A,5.45833333333333,4.5,ScrollDown,ScrollUp,Green.png,3,Positive,Congruent,,,NaN,,,NaN,NaN,NaN,NaN,NaN,NaN,NaN,NaN,NaN,NaN,NaN,NaN,0,0,0,0,NaN,NaN,NaN,NaN,NaN,NaN,NaN,NaN,0,0,0,0,NaN,NaN,NaN,NaN,2,0,2,0,0,10,10,10,NaN,NaN,NaN,NaN,NaN,NaN,NaN,NaN,NaN,NaN,NaN,NaN,NaN,NaN,NaN,NaN,NaN,NaN,NaN,NaN,NaN,,NaN,NaN,NaN,NaN,NaN,NaN,NaN,NaN,NaN,NaN,NaN,,,NaN,NaN,NaN,NaN,1126.62141030002,1126.62141030002,1126.62141030002,1126.62141030002,1126.62141030002,1.26388888888889,0.916706600226462,ScrollDown,정답,1127.54913399974,1127.54913399974,1128.04987049988,1128.55555119971,NaN,,NaN,NaN,NaN,,,NaN,,,NaN,NaN,NaN,,NaN,NaN,NaN,NaN,NaN,NaN,NaN,10,51,여자,yes,yes,yes,yes,no,2023-07-28_10h15.28.383,Main,2022.2.4,60.2180375603356
12,나를 데려가줘,6,Orange,B,0,0,ScrollDown,ScrollUp,Orange.png,3,NonTarget,NonTarget,,,NaN,,,NaN,NaN,NaN,NaN,NaN,NaN,NaN,NaN,NaN,NaN,NaN,NaN,0,0,0,0,NaN,NaN,NaN,NaN,NaN,NaN,NaN,NaN,0,0,0,0,NaN,NaN,NaN,NaN,2,0,2,0,0,11,11,11,NaN,NaN,NaN,NaN,NaN,NaN,NaN,NaN,NaN,NaN,NaN,NaN,NaN,NaN,NaN,NaN,NaN,NaN,NaN,NaN,NaN,,NaN,NaN,NaN,NaN,NaN,NaN,NaN,NaN,NaN,NaN,NaN,,,NaN,NaN,NaN,NaN,1128.55555119971,1128.55555119971,1128.55555119971,1128.55555119971,1128.55555119971,1.3858024691358,1.45032939966768,ScrollDown,정답,1130.01562829968,1130.01562829968,1130.51561719971,1131.02442390006,NaN,,NaN,NaN,NaN,,,NaN,,,NaN,NaN,NaN,,NaN,NaN,NaN,NaN,NaN,NaN,NaN,10,51,여자,yes,yes,yes,yes,no,2023-07-28_10h15.28.383,Main,2022.2.4,60.2180375603356
13,넌 뛰어나,2,Orange,B,6.16666666666667,4,ScrollUp,ScrollDown,Orange.png,3,Positive,Incongruent,,,NaN,,,NaN,NaN,NaN,NaN,NaN,NaN,NaN,NaN,NaN,NaN,NaN,NaN,0,0,0,0,NaN,NaN,NaN,NaN,NaN,NaN,NaN,NaN,0,0,0,0,NaN,NaN,NaN,NaN,2,0,2,0,0,12,12,12,NaN,NaN,NaN,NaN,NaN,NaN,NaN,NaN,NaN,NaN,NaN,NaN,NaN,NaN,NaN,NaN,NaN,NaN,NaN,NaN,NaN,,NaN,NaN,NaN,NaN,NaN,NaN,NaN,NaN,NaN,NaN,NaN,,,NaN,NaN,NaN,NaN,1131.02442390006,1131.02442390006,1131.02442390006,1131.02442390006,1131.02442390006,1.65586419753086,1.63261270010844,ScrollUp,정답,1132.66603609966,1132.66603609966,1133.16579729971,1133.67629149975,NaN,,NaN,NaN,NaN,,,NaN,,,NaN,NaN,NaN,,NaN,NaN,NaN,NaN,NaN,NaN,NaN,10,51,여자,yes,yes,yes,yes,no,2023-07-28_10h15.28.383,Main,2022.2.4,60.2180375603356
14,넌 낙관적이야,1,Green,A,5.75,5.8,ScrollDown,ScrollUp,Green.png,3,Positive,Congruent,,,NaN,,,NaN,NaN,NaN,NaN,NaN,NaN,NaN,NaN,NaN,NaN,NaN,NaN,0,0,0,0,NaN,NaN,NaN,NaN,NaN,NaN,NaN,NaN,0,0,0,0,NaN,NaN,NaN,NaN,2,0,2,0,0,13,13,13,NaN,NaN,NaN,NaN,NaN,NaN,NaN,NaN,NaN,NaN,NaN,NaN,NaN,NaN,NaN,NaN,NaN,NaN,NaN,NaN,NaN,,NaN,NaN,NaN,NaN,NaN,NaN,NaN,NaN,NaN,NaN,NaN,,,NaN,NaN,NaN,NaN,1133.67629149975,1133.67629149975,1133.67629149975,1133.67629149975,1133.67629149975,1.33641975308642,1.46556349983439,ScrollDown,정답,1135.14894589968,1135.14894589968,1135.64915889967,1136.15736729978,NaN,,NaN,NaN,NaN,,,NaN,,,NaN,NaN,NaN,,NaN,NaN,NaN,NaN,NaN,NaN,NaN,10,51,여자,yes,yes,yes,yes,no,2023-07-28_10h15.28.383,Main,2022.2.4,60.2180375603356
15,넌 산만해,4,Orange,B,2.69565217391304,3.03333333333333,ScrollUp,ScrollDown,Orange.png,3,Negative,Congruent,,,NaN,,,NaN,NaN,NaN,NaN,NaN,NaN,NaN,NaN,NaN,NaN,NaN,NaN,0,0,0,0,NaN,NaN,NaN,NaN,NaN,NaN,NaN,NaN,0,0,0,0,NaN,NaN,NaN,NaN,2,0,2,0,0,14,14,14,NaN,NaN,NaN,NaN,NaN,NaN,NaN,NaN,NaN,NaN,NaN,NaN,NaN,NaN,NaN,NaN,NaN,NaN,NaN,NaN,NaN,,NaN,NaN,NaN,NaN,NaN,NaN,NaN,NaN,NaN,NaN,NaN,,,NaN,NaN,NaN,NaN,1136.15736729978,1136.15736729978,1136.15736729978,1136.15736729978,1136.15736729978,1.59876543209877,0.918499699793756,ScrollUp,정답,1137.08249849966,1137.08249849966,1137.58319969987,1138.08714379976,NaN,,NaN,NaN,NaN,,,NaN,,,NaN,NaN,NaN,,NaN,NaN,NaN,NaN,NaN,NaN,NaN,10,51,여자,yes,yes,yes,yes,no,2023-07-28_10h15.28.383,Main,2022.2.4,60.2180375603356
16,나를 보내줘,6,Green,A,0,0,ScrollUp,ScrollDown,Green.png,3,NonTarget,NonTarget,,,NaN,,,NaN,NaN,NaN,NaN,NaN,NaN,NaN,NaN,NaN,NaN,NaN,NaN,0,0,0,0,NaN,NaN,NaN,NaN,NaN,NaN,NaN,NaN,0,0,0,0,NaN,NaN,NaN,NaN,2,0,2,0,0,15,15,15,NaN,NaN,NaN,NaN,NaN,NaN,NaN,NaN,NaN,NaN,NaN,NaN,NaN,NaN,NaN,NaN,NaN,NaN,NaN,NaN,NaN,,NaN,NaN,NaN,NaN,NaN,NaN,NaN,NaN,NaN,NaN,NaN,,,NaN,NaN,NaN,NaN,1138.08714379976,1138.08714379976,1138.08714379976,1138.08714379976,1138.08714379976,1.25925925925926,0.917313799727708,ScrollDown,오답,1139.01566739986,1139.01566739986,1139.5156552,1140.02661069995,NaN,,NaN,NaN,NaN,,,NaN,,,NaN,NaN,NaN,,NaN,NaN,NaN,NaN,NaN,NaN,NaN,10,51,여자,yes,yes,yes,yes,no,2023-07-28_10h15.28.383,Main,2022.2.4,60.2180375603356
17,넌 교활해,5,Orange,B,2.33333333333333,2.13333333333333,ScrollUp,ScrollDown,Orange.png,3,Negative,Congruent,,,NaN,,,NaN,NaN,NaN,NaN,NaN,NaN,NaN,NaN,NaN,NaN,NaN,NaN,0,0,0,0,NaN,NaN,NaN,NaN,NaN,NaN,NaN,NaN,0,0,0,0,NaN,NaN,NaN,NaN,2,0,2,0,0,16,16,16,NaN,NaN,NaN,NaN,NaN,NaN,NaN,NaN,NaN,NaN,NaN,NaN,NaN,NaN,NaN,NaN,NaN,NaN,NaN,NaN,NaN,,NaN,NaN,NaN,NaN,NaN,NaN,NaN,NaN,NaN,NaN,NaN,,,NaN,NaN,NaN,NaN,1140.02661069995,1140.02661069995,1140.02661069995,1140.02661069995,1140.02661069995,1.5570987654321,0.866310100071132,ScrollUp,정답,1140.89934729971,1140.89934729971,1141.3991605998,1141.90570029989,NaN,,NaN,NaN,NaN,,,NaN,,,NaN,NaN,NaN,,NaN,NaN,NaN,NaN,NaN,NaN,NaN,10,51,여자,yes,yes,yes,yes,no,2023-07-28_10h15.28.383,Main,2022.2.4,60.2180375603356
18,나를 보내줘,6,Green,A,0,0,ScrollUp,ScrollDown,Green.png,3,NonTarget,NonTarget,,,NaN,,,NaN,NaN,NaN,NaN,NaN,NaN,NaN,NaN,NaN,NaN,NaN,NaN,0,0,0,0,NaN,NaN,NaN,NaN,NaN,NaN,NaN,NaN,0,0,0,0,NaN,NaN,NaN,NaN,2,0,2,0,0,17,17,17,NaN,NaN,NaN,NaN,NaN,NaN,NaN,NaN,NaN,NaN,NaN,NaN,NaN,NaN,NaN,NaN,NaN,NaN,NaN,NaN,NaN,,NaN,NaN,NaN,NaN,NaN,NaN,NaN,NaN,NaN,NaN,NaN,,,NaN,NaN,NaN,NaN,1141.90570029989,1141.90570029989,1141.90570029989,1141.90570029989,1141.90570029989,1.79783950617284,1.21507589984685,ScrollUp,정답,1143.13250639988,1143.13250639988,1143.63255209988,1144.14453470008,NaN,,NaN,NaN,NaN,,,NaN,,,NaN,NaN,NaN,,NaN,NaN,NaN,NaN,NaN,NaN,NaN,10,51,여자,yes,yes,yes,yes,no,2023-07-28_10h15.28.383,Main,2022.2.4,60.2180375603356
19,넌 불친절해,5,Orange,B,2.20833333333333,2.03333333333333,ScrollUp,ScrollDown,Orange.png,3,Negative,Congruent,,,NaN,,,NaN,NaN,NaN,NaN,NaN,NaN,NaN,NaN,NaN,NaN,NaN,NaN,0,0,0,0,NaN,NaN,NaN,NaN,NaN,NaN,NaN,NaN,0,0,0,0,NaN,NaN,NaN,NaN,2,0,2,0,0,18,18,18,NaN,NaN,NaN,NaN,NaN,NaN,NaN,NaN,NaN,NaN,NaN,NaN,NaN,NaN,NaN,NaN,NaN,NaN,NaN,NaN,NaN,,NaN,NaN,NaN,NaN,NaN,NaN,NaN,NaN,NaN,NaN,NaN,,,NaN,NaN,NaN,NaN,1144.14453470008,1144.14453470008,1144.14453470008,1144.14453470008,1144.14453470008,1.64197530864198,0.932830899953842,ScrollUp,정답,1145.08299109992,1145.08299109992,1145.58257519966,1146.08550749999,NaN,,NaN,NaN,NaN,,,NaN,,,NaN,NaN,NaN,,NaN,NaN,NaN,NaN,NaN,NaN,NaN,10,51,여자,yes,yes,yes,yes,no,2023-07-28_10h15.28.383,Main,2022.2.4,60.2180375603356
20,넌 지적이야,2,Orange,B,5.75,4.36666666666667,ScrollUp,ScrollDown,Orange.png,3,Positive,Incongruent,,,NaN,,,NaN,NaN,NaN,NaN,NaN,NaN,NaN,NaN,NaN,NaN,NaN,NaN,0,0,0,0,NaN,NaN,NaN,NaN,NaN,NaN,NaN,NaN,0,0,0,0,NaN,NaN,NaN,NaN,2,0,2,0,0,19,19,19,NaN,NaN,NaN,NaN,NaN,NaN,NaN,NaN,NaN,NaN,NaN,NaN,NaN,NaN,NaN,NaN,NaN,NaN,NaN,NaN,NaN,,NaN,NaN,NaN,NaN,NaN,NaN,NaN,NaN,NaN,NaN,NaN,,,NaN,NaN,NaN,NaN,1146.08550749999,1146.08550749999,1146.08550749999,1146.08550749999,1146.08550749999,1.67592592592593,0.699721700046211,ScrollUp,정답,1146.79906859994,1146.79906859994,1147.29911069991,1147.81374750007,NaN,,NaN,NaN,NaN,,,NaN,,,NaN,NaN,NaN,,NaN,NaN,NaN,NaN,NaN,NaN,NaN,10,51,여자,yes,yes,yes,yes,no,2023-07-28_10h15.28.383,Main,2022.2.4,60.2180375603356
21,넌 우유부단해,4,Green,A,2.66666666666667,3.16666666666667,ScrollDown,ScrollUp,Green.png,3,Negative,Incongruent,,,NaN,,,NaN,NaN,NaN,NaN,NaN,NaN,NaN,NaN,NaN,NaN,NaN,NaN,0,0,0,0,NaN,NaN,NaN,NaN,NaN,NaN,NaN,NaN,0,0,0,0,NaN,NaN,NaN,NaN,2,0,2,0,0,20,20,20,NaN,NaN,NaN,NaN,NaN,NaN,NaN,NaN,NaN,NaN,NaN,NaN,NaN,NaN,NaN,NaN,NaN,NaN,NaN,NaN,NaN,,NaN,NaN,NaN,NaN,NaN,NaN,NaN,NaN,NaN,NaN,NaN,,,NaN,NaN,NaN,NaN,1147.81374750007,1147.81374750007,1147.81374750007,1147.81374750007,1147.81374750007,1.41358024691358,0.883231999818236,ScrollDown,정답,1148.69893399999,1148.69893399999,1149.19898839993,1149.70902269986,NaN,,NaN,NaN,NaN,,,NaN,,,NaN,NaN,NaN,,NaN,NaN,NaN,NaN,NaN,NaN,NaN,10,51,여자,yes,yes,yes,yes,no,2023-07-28_10h15.28.383,Main,2022.2.4,60.2180375603356
22,나를 데려가줘,6,Orange,B,0,0,ScrollDown,ScrollUp,Orange.png,3,NonTarget,NonTarget,,,NaN,,,NaN,NaN,NaN,NaN,NaN,NaN,NaN,NaN,NaN,NaN,NaN,NaN,0,0,0,0,NaN,NaN,NaN,NaN,NaN,NaN,NaN,NaN,0,0,0,0,NaN,NaN,NaN,NaN,2,0,2,0,0,21,21,21,NaN,NaN,NaN,NaN,NaN,NaN,NaN,NaN,NaN,NaN,NaN,NaN,NaN,NaN,NaN,NaN,NaN,NaN,NaN,NaN,NaN,,NaN,NaN,NaN,NaN,NaN,NaN,NaN,NaN,NaN,NaN,NaN,,,NaN,NaN,NaN,NaN,1149.70902269986,1149.70902269986,1149.70902269986,1149.70902269986,1149.70902269986,1.4891975308642,1.41672390000895,NoResponse,무응답,1151.13241579989,1151.13241579989,1151.63277649973,1152.14289689995,NaN,,NaN,NaN,NaN,,,NaN,,,NaN,NaN,NaN,,NaN,NaN,NaN,NaN,NaN,NaN,NaN,10,51,여자,yes,yes,yes,yes,no,2023-07-28_10h15.28.383,Main,2022.2.4,60.2180375603356
23,넌 성실해,1,Orange,B,6.04166666666667,5.7,ScrollUp,ScrollDown,Orange.png,3,Positive,Incongruent,,,NaN,,,NaN,NaN,NaN,NaN,NaN,NaN,NaN,NaN,NaN,NaN,NaN,NaN,0,0,0,0,NaN,NaN,NaN,NaN,NaN,NaN,NaN,NaN,0,0,0,0,NaN,NaN,NaN,NaN,2,0,2,0,0,22,22,22,NaN,NaN,NaN,NaN,NaN,NaN,NaN,NaN,NaN,NaN,NaN,NaN,NaN,NaN,NaN,NaN,NaN,NaN,NaN,NaN,NaN,,NaN,NaN,NaN,NaN,NaN,NaN,NaN,NaN,NaN,NaN,NaN,,,NaN,NaN,NaN,NaN,1152.14289689995,1152.14289689995,1152.14289689995,1152.14289689995,1152.14289689995,1.90586419753086,2.26630140002817,ScrollUp,정답,1154.41591320001,1154.41591320001,1154.91578170005,1155.42210449977,NaN,,NaN,NaN,NaN,,,NaN,,,NaN,NaN,NaN,,NaN,NaN,NaN,NaN,NaN,NaN,NaN,10,51,여자,yes,yes,yes,yes,no,2023-07-28_10h15.28.383,Main,2022.2.4,60.2180375603356
24,넌 현실주의적이야,3,Green,A,4.625,4.4,ScrollDown,ScrollUp,Green.png,3,Neutral,Neutral,,,NaN,,,NaN,NaN,NaN,NaN,NaN,NaN,NaN,NaN,NaN,NaN,NaN,NaN,0,0,0,0,NaN,NaN,NaN,NaN,NaN,NaN,NaN,NaN,0,0,0,0,NaN,NaN,NaN,NaN,2,0,2,0,0,23,23,23,NaN,NaN,NaN,NaN,NaN,NaN,NaN,NaN,NaN,NaN,NaN,NaN,NaN,NaN,NaN,NaN,NaN,NaN,NaN,NaN,NaN,,NaN,NaN,NaN,NaN,NaN,NaN,NaN,NaN,NaN,NaN,NaN,,,NaN,NaN,NaN,NaN,1155.42210449977,1155.42210449977,1155.42210449977,1155.42210449977,1155.42210449977,1.28395061728395,0.933202200103551,ScrollDown,정답,1156.36598380003,1156.36598380003,1156.86571640009,1157.37476389995,NaN,,NaN,NaN,NaN,,,NaN,,,NaN,NaN,NaN,,NaN,NaN,NaN,NaN,NaN,NaN,NaN,10,51,여자,yes,yes,yes,yes,no,2023-07-28_10h15.28.383,Main,2022.2.4,60.2180375603356
25,넌 진실돼,1,Green,A,6.625,5.56666666666667,ScrollDown,ScrollUp,Green.png,3,Positive,Congruent,,,NaN,,,NaN,NaN,NaN,NaN,NaN,NaN,NaN,NaN,NaN,NaN,NaN,NaN,0,0,0,0,NaN,NaN,NaN,NaN,NaN,NaN,NaN,NaN,0,0,0,0,NaN,NaN,NaN,NaN,2,0,2,0,0,24,24,24,NaN,NaN,NaN,NaN,NaN,NaN,NaN,NaN,NaN,NaN,NaN,NaN,NaN,NaN,NaN,NaN,NaN,NaN,NaN,NaN,NaN,,NaN,NaN,NaN,NaN,NaN,NaN,NaN,NaN,NaN,NaN,NaN,,,NaN,NaN,NaN,NaN,1157.37476389995,1157.37476389995,1157.37476389995,1157.37476389995,1157.37476389995,1.27006172839506,0.748905200045556,ScrollDown,정답,1158.13294699974,1158.13294699974,1158.63265640009,1159.14703190001,NaN,,NaN,NaN,NaN,,,NaN,,,NaN,NaN,NaN,,NaN,NaN,NaN,NaN,NaN,NaN,NaN,10,51,여자,yes,yes,yes,yes,no,2023-07-28_10h15.28.383,Main,2022.2.4,60.2180375603356
26,넌 천진난만해,3,Orange,B,4.95833333333333,4.83333333333333,ScrollUp,ScrollDown,Orange.png,3,Neutral,Neutral,,,NaN,,,NaN,NaN,NaN,NaN,NaN,NaN,NaN,NaN,NaN,NaN,NaN,NaN,0,0,0,0,NaN,NaN,NaN,NaN,NaN,NaN,NaN,NaN,0,0,0,0,NaN,NaN,NaN,NaN,2,0,2,0,0,25,25,25,NaN,NaN,NaN,NaN,NaN,NaN,NaN,NaN,NaN,NaN,NaN,NaN,NaN,NaN,NaN,NaN,NaN,NaN,NaN,NaN,NaN,,NaN,NaN,NaN,NaN,NaN,NaN,NaN,NaN,NaN,NaN,NaN,,,NaN,NaN,NaN,NaN,1159.14703190001,1159.14703190001,1159.14703190001,1159.14703190001,1159.14703190001,2,0.898452199995518,ScrollUp,정답,1160.04892649967,1160.04892649967,1160.54939140007,1161.05848449981,NaN,,NaN,NaN,NaN,,,NaN,,,NaN,NaN,NaN,,NaN,NaN,NaN,NaN,NaN,NaN,NaN,10,51,여자,yes,yes,yes,yes,no,2023-07-28_10h15.28.383,Main,2022.2.4,60.2180375603356
27,넌 교양없어,5,Green,A,2.41666666666667,2.2,ScrollDown,ScrollUp,Green.png,3,Negative,Incongruent,,,NaN,,,NaN,NaN,NaN,NaN,NaN,NaN,NaN,NaN,NaN,NaN,NaN,NaN,0,0,0,0,NaN,NaN,NaN,NaN,NaN,NaN,NaN,NaN,0,0,0,0,NaN,NaN,NaN,NaN,2,0,2,0,0,26,26,26,NaN,NaN,NaN,NaN,NaN,NaN,NaN,NaN,NaN,NaN,NaN,NaN,NaN,NaN,NaN,NaN,NaN,NaN,NaN,NaN,NaN,,NaN,NaN,NaN,NaN,NaN,NaN,NaN,NaN,NaN,NaN,NaN,,,NaN,NaN,NaN,NaN,1161.05848449981,1161.05848449981,1161.05848449981,1161.05848449981,1161.05848449981,1.24074074074074,0.982331200037152,ScrollDown,정답,1162.04881169973,1162.04881169973,1162.54986999976,1163.05636689998,NaN,,NaN,NaN,NaN,,,NaN,,,NaN,NaN,NaN,,NaN,NaN,NaN,NaN,NaN,NaN,NaN,10,51,여자,yes,yes,yes,yes,no,2023-07-28_10h15.28.383,Main,2022.2.4,60.2180375603356
28,나를 보내줘,6,Green,A,0,0,ScrollUp,ScrollDown,Green.png,3,NonTarget,NonTarget,,,NaN,,,NaN,NaN,NaN,NaN,NaN,NaN,NaN,NaN,NaN,NaN,NaN,NaN,0,0,0,0,NaN,NaN,NaN,NaN,NaN,NaN,NaN,NaN,0,0,0,0,NaN,NaN,NaN,NaN,2,0,2,0,0,27,27,27,NaN,NaN,NaN,NaN,NaN,NaN,NaN,NaN,NaN,NaN,NaN,NaN,NaN,NaN,NaN,NaN,NaN,NaN,NaN,NaN,NaN,,NaN,NaN,NaN,NaN,NaN,NaN,NaN,NaN,NaN,NaN,NaN,,,NaN,NaN,NaN,NaN,1163.05636689998,1163.05636689998,1163.05636689998,1163.05636689998,1163.05636689998,1.28086419753086,0.882044699974358,ScrollDown,오답,1163.94930139976,1163.94930139976,1164.44911519997,1164.95860749995,NaN,,NaN,NaN,NaN,,,NaN,,,NaN,NaN,NaN,,NaN,NaN,NaN,NaN,NaN,NaN,NaN,10,51,여자,yes,yes,yes,yes,no,2023-07-28_10h15.28.383,Main,2022.2.4,60.2180375603356
29,넌 엉뚱스러워,3,Green,A,4.16666666666667,4.13333333333333,ScrollDown,ScrollUp,Green.png,3,Neutral,Neutral,,,NaN,,,NaN,NaN,NaN,NaN,NaN,NaN,NaN,NaN,NaN,NaN,NaN,NaN,0,0,0,0,NaN,NaN,NaN,NaN,NaN,NaN,NaN,NaN,0,0,0,0,NaN,NaN,NaN,NaN,2,0,2,0,0,28,28,28,NaN,NaN,NaN,NaN,NaN,NaN,NaN,NaN,NaN,NaN,NaN,NaN,NaN,NaN,NaN,NaN,NaN,NaN,NaN,NaN,NaN,,NaN,NaN,NaN,NaN,NaN,NaN,NaN,NaN,NaN,NaN,NaN,,,NaN,NaN,NaN,NaN,1164.95860749995,1164.95860749995,1164.95860749995,1164.95860749995,1164.95860749995,1.37345679012346,1.88304829970002,ScrollDown,정답,1166.84947929997,1166.84947929997,1167.34935279982,1167.85847549979,NaN,,NaN,NaN,NaN,,,NaN,,,NaN,NaN,NaN,,NaN,NaN,NaN,NaN,NaN,NaN,NaN,10,51,여자,yes,yes,yes,yes,no,2023-07-28_10h15.28.383,Main,2022.2.4,60.2180375603356
30,넌 무지해,4,Orange,B,2.54166666666667,3.06666666666667,ScrollUp,ScrollDown,Orange.png,3,Negative,Congruent,,,NaN,,,NaN,NaN,NaN,NaN,NaN,NaN,NaN,NaN,NaN,NaN,NaN,NaN,0,0,0,0,NaN,NaN,NaN,NaN,NaN,NaN,NaN,NaN,0,0,0,0,NaN,NaN,NaN,NaN,2,0,2,0,0,29,29,29,NaN,NaN,NaN,NaN,NaN,NaN,NaN,NaN,NaN,NaN,NaN,NaN,NaN,NaN,NaN,NaN,NaN,NaN,NaN,NaN,NaN,,NaN,NaN,NaN,NaN,NaN,NaN,NaN,NaN,NaN,NaN,NaN,,,NaN,NaN,NaN,NaN,1167.85847549979,1167.85847549979,1167.85847549979,1167.85847549979,1167.85847549979,2,0.832220199983567,ScrollUp,정답,1168.69903500006,1168.69903500006,1169.19922970003,1169.71156070009,NaN,,NaN,NaN,NaN,,,NaN,,,NaN,NaN,NaN,,NaN,NaN,NaN,NaN,NaN,NaN,NaN,10,51,여자,yes,yes,yes,yes,no,2023-07-28_10h15.28.383,Main,2022.2.4,60.2180375603356
31,넌 음울해,5,Orange,B,2.25,2.23333333333333,ScrollUp,ScrollDown,Orange.png,3,Negative,Congruent,,,NaN,,,NaN,NaN,NaN,NaN,NaN,NaN,NaN,NaN,NaN,NaN,NaN,NaN,0,0,0,0,NaN,NaN,NaN,NaN,NaN,NaN,NaN,NaN,0,0,0,0,NaN,NaN,NaN,NaN,2,0,2,0,0,30,30,30,NaN,NaN,NaN,NaN,NaN,NaN,NaN,NaN,NaN,NaN,NaN,NaN,NaN,NaN,NaN,NaN,NaN,NaN,NaN,NaN,NaN,,NaN,NaN,NaN,NaN,NaN,NaN,NaN,NaN,NaN,NaN,NaN,,,NaN,NaN,NaN,NaN,1169.71156070009,1169.71156070009,1169.71156070009,1169.71156070009,1169.71156070009,2,0.832949100062251,ScrollUp,정답,1170.54929569969,1170.54929569969,1171.04907900002,1171.55962459976,NaN,,NaN,NaN,NaN,,,NaN,,,NaN,NaN,NaN,,NaN,NaN,NaN,NaN,NaN,NaN,NaN,10,51,여자,yes,yes,yes,yes,no,2023-07-28_10h15.28.383,Main,2022.2.4,60.2180375603356
32,넌 냉소적이야,5,Green,A,2.91666666666667,2.4,ScrollDown,ScrollUp,Green.png,3,Negative,Incongruent,,,NaN,,,NaN,NaN,NaN,NaN,NaN,NaN,NaN,NaN,NaN,NaN,NaN,NaN,0,0,0,0,NaN,NaN,NaN,NaN,NaN,NaN,NaN,NaN,0,0,0,0,NaN,NaN,NaN,NaN,2,0,2,0,0,31,31,31,NaN,NaN,NaN,NaN,NaN,NaN,NaN,NaN,NaN,NaN,NaN,NaN,NaN,NaN,NaN,NaN,NaN,NaN,NaN,NaN,NaN,,NaN,NaN,NaN,NaN,NaN,NaN,NaN,NaN,NaN,NaN,NaN,,,NaN,NaN,NaN,NaN,1171.55962459976,1171.55962459976,1171.55962459976,1171.55962459976,1171.55962459976,1.29166666666667,0.948383599985391,ScrollDown,정답,1172.51579710003,1172.51579710003,1173.01570970006,1173.52345389966,NaN,,NaN,NaN,NaN,,,NaN,,,NaN,NaN,NaN,,NaN,NaN,NaN,NaN,NaN,NaN,NaN,10,51,여자,yes,yes,yes,yes,no,2023-07-28_10h15.28.383,Main,2022.2.4,60.2180375603356
33,나를 데려가줘,6,Orange,B,0,0,ScrollDown,ScrollUp,Orange.png,3,NonTarget,NonTarget,,,NaN,,,NaN,NaN,NaN,NaN,NaN,NaN,NaN,NaN,NaN,NaN,NaN,NaN,0,0,0,0,NaN,NaN,NaN,NaN,NaN,NaN,NaN,NaN,0,0,0,0,NaN,NaN,NaN,NaN,2,0,2,0,0,32,32,32,NaN,NaN,NaN,NaN,NaN,NaN,NaN,NaN,NaN,NaN,NaN,NaN,NaN,NaN,NaN,NaN,NaN,NaN,NaN,NaN,NaN,,NaN,NaN,NaN,NaN,NaN,NaN,NaN,NaN,NaN,NaN,NaN,,,NaN,NaN,NaN,NaN,1173.52345389966,1173.52345389966,1173.52345389966,1173.52345389966,1173.52345389966,1.4783950617284,1.31626990018412,NoResponse,무응답,1174.84900469985,1174.84900469985,1175.34917819966,1175.86335649993,NaN,,NaN,NaN,NaN,,,NaN,,,NaN,NaN,NaN,,NaN,NaN,NaN,NaN,NaN,NaN,NaN,10,51,여자,yes,yes,yes,yes,no,2023-07-28_10h15.28.383,Main,2022.2.4,60.2180375603356
34,넌 쾌활해,1,Green,A,5.54166666666667,5.73333333333333,ScrollDown,ScrollUp,Green.png,3,Positive,Congruent,,,NaN,,,NaN,NaN,NaN,NaN,NaN,NaN,NaN,NaN,NaN,NaN,NaN,NaN,0,0,0,0,NaN,NaN,NaN,NaN,NaN,NaN,NaN,NaN,0,0,0,0,NaN,NaN,NaN,NaN,2,0,2,0,0,33,33,33,NaN,NaN,NaN,NaN,NaN,NaN,NaN,NaN,NaN,NaN,NaN,NaN,NaN,NaN,NaN,NaN,NaN,NaN,NaN,NaN,NaN,,NaN,NaN,NaN,NaN,NaN,NaN,NaN,NaN,NaN,NaN,NaN,,,NaN,NaN,NaN,NaN,1175.86335649993,1175.86335649993,1175.86335649993,1175.86335649993,1175.86335649993,1.31635802469136,0.997308799996972,ScrollDown,정답,1176.86560350005,1176.86560350005,1177.36571269995,1177.87304640003,NaN,,NaN,NaN,NaN,,,NaN,,,NaN,NaN,NaN,,NaN,NaN,NaN,NaN,NaN,NaN,NaN,10,51,여자,yes,yes,yes,yes,no,2023-07-28_10h15.28.383,Main,2022.2.4,60.2180375603356
35,나를 보내줘,6,Green,A,0,0,ScrollUp,ScrollDown,Green.png,3,NonTarget,NonTarget,,,NaN,,,NaN,NaN,NaN,NaN,NaN,NaN,NaN,NaN,NaN,NaN,NaN,NaN,0,0,0,0,NaN,NaN,NaN,NaN,NaN,NaN,NaN,NaN,0,0,0,0,NaN,NaN,NaN,NaN,2,0,2,0,0,34,34,34,NaN,NaN,NaN,NaN,NaN,NaN,NaN,NaN,NaN,NaN,NaN,NaN,NaN,NaN,NaN,NaN,NaN,NaN,NaN,NaN,NaN,,NaN,NaN,NaN,NaN,NaN,NaN,NaN,NaN,NaN,NaN,NaN,,,NaN,NaN,NaN,NaN,1177.87304640003,1177.87304640003,1177.87304640003,1177.87304640003,1177.87304640003,1.83333333333333,1.39925599982962,ScrollUp,정답,1179.28248379985,1179.28248379985,1179.78285089973,1180.29396799998,NaN,,NaN,NaN,NaN,,,NaN,,,NaN,NaN,NaN,,NaN,NaN,NaN,NaN,NaN,NaN,NaN,10,51,여자,yes,yes,yes,yes,no,2023-07-28_10h15.28.383,Main,2022.2.4,60.2180375603356
36,넌 명랑해,1,Orange,B,5.73913043478261,5.66666666666667,ScrollUp,ScrollDown,Orange.png,3,Positive,Incongruent,,,NaN,,,NaN,NaN,NaN,NaN,NaN,NaN,NaN,NaN,NaN,NaN,NaN,NaN,0,0,0,0,NaN,NaN,NaN,NaN,NaN,NaN,NaN,NaN,0,0,0,0,NaN,NaN,NaN,NaN,2,0,2,0,0,35,35,35,NaN,NaN,NaN,NaN,NaN,NaN,NaN,NaN,NaN,NaN,NaN,NaN,NaN,NaN,NaN,NaN,NaN,NaN,NaN,NaN,NaN,,NaN,NaN,NaN,NaN,NaN,NaN,NaN,NaN,NaN,NaN,NaN,,,NaN,NaN,NaN,NaN,1180.29396799998,1180.29396799998,1180.29396799998,1180.29396799998,1180.29396799998,1.78703703703704,1.15035609994084,ScrollUp,정답,1181.44991789991,1181.44991789991,1181.94912209967,1182.45530320005,NaN,,NaN,NaN,NaN,,,NaN,,,NaN,NaN,NaN,,NaN,NaN,NaN,NaN,NaN,NaN,NaN,10,51,여자,yes,yes,yes,yes,no,2023-07-28_10h15.28.383,Main,2022.2.4,60.2180375603356
37,넌 멍해,4,Green,A,2.83333333333333,3.4,ScrollDown,ScrollUp,Green.png,3,Negative,Incongruent,,,NaN,,,NaN,NaN,NaN,NaN,NaN,NaN,NaN,NaN,NaN,NaN,NaN,NaN,0,0,0,0,NaN,NaN,NaN,NaN,NaN,NaN,NaN,NaN,0,0,0,0,NaN,NaN,NaN,NaN,2,0,2,0,0,36,36,36,NaN,NaN,NaN,NaN,NaN,NaN,NaN,NaN,NaN,NaN,NaN,NaN,NaN,NaN,NaN,NaN,NaN,NaN,NaN,NaN,NaN,,NaN,NaN,NaN,NaN,NaN,NaN,NaN,NaN,NaN,NaN,NaN,,,NaN,NaN,NaN,NaN,1182.45530320005,1182.45530320005,1182.45530320005,1182.45530320005,1182.45530320005,1.46604938271605,0.900280999951065,NoResponse,무응답,1183.36726289988,1183.36726289988,1183.86603230005,NaN,NaN,,NaN,NaN,NaN,,,NaN,,,NaN,NaN,NaN,,NaN,NaN,NaN,NaN,NaN,NaN,NaN,10,51,여자,yes,yes,yes,yes,no,2023-07-28_10h15.28.383,Main,2022.2.4,60.2180375603356
38,나를 데려가줘,6,Orange,B,0,0,ScrollDown,ScrollUp,Orange.png,3,NonTarget,NonTarget,,,NaN,,,NaN,NaN,NaN,NaN,NaN,NaN,NaN,NaN,NaN,NaN,NaN,NaN,0,0,0,0,NaN,NaN,NaN,NaN,NaN,NaN,NaN,NaN,0,0,0,0,NaN,NaN,NaN,NaN,2,0,2,0,0,37,37,37,NaN,NaN,NaN,NaN,NaN,NaN,NaN,NaN,NaN,NaN,NaN,NaN,NaN,NaN,NaN,NaN,NaN,NaN,NaN,NaN,NaN,,NaN,NaN,NaN,NaN,NaN,NaN,NaN,NaN,NaN,NaN,NaN,,,NaN,NaN,NaN,NaN,1184.38959309971,1184.38959309971,1184.38959309971,1184.38959309971,1184.38959309971,1.70524691358025,0.850823600310832,ScrollUp,오답,1185.24895759998,1185.24895759998,1185.74914880004,1186.26271539973,NaN,,NaN,NaN,NaN,,,NaN,,,NaN,NaN,NaN,,NaN,NaN,NaN,NaN,NaN,NaN,NaN,10,51,여자,yes,yes,yes,yes,no,2023-07-28_10h15.28.383,Main,2022.2.4,60.2180375603356
39,넌 현명해,2,Green,A,6.54166666666667,4.53333333333333,ScrollDown,ScrollUp,Green.png,3,Positive,Congruent,,,NaN,,,NaN,NaN,NaN,NaN,NaN,NaN,NaN,NaN,NaN,NaN,NaN,NaN,0,0,0,0,NaN,NaN,NaN,NaN,NaN,NaN,NaN,NaN,0,0,0,0,NaN,NaN,NaN,NaN,2,0,2,0,0,38,38,38,NaN,NaN,NaN,NaN,NaN,NaN,NaN,NaN,NaN,NaN,NaN,NaN,NaN,NaN,NaN,NaN,NaN,NaN,NaN,NaN,NaN,,NaN,NaN,NaN,NaN,NaN,NaN,NaN,NaN,NaN,NaN,NaN,,,NaN,NaN,NaN,NaN,1186.26271539973,1186.26271539973,1186.26271539973,1186.26271539973,1186.26271539973,1.41049382716049,0.832923599984497,ScrollDown,정답,1187.09931569966,1187.09931569966,1187.59904639982,1188.11502890009,NaN,,NaN,NaN,NaN,,,NaN,,,NaN,NaN,NaN,,NaN,NaN,NaN,NaN,NaN,NaN,NaN,10,51,여자,yes,yes,yes,yes,no,2023-07-28_10h15.28.383,Main,2022.2.4,60.2180375603356
40,넌 수줍어,3,Orange,B,3.54166666666667,4.36666666666667,ScrollUp,ScrollDown,Orange.png,3,Neutral,Neutral,,,NaN,,,NaN,NaN,NaN,NaN,NaN,NaN,NaN,NaN,NaN,NaN,NaN,NaN,0,0,0,0,NaN,NaN,NaN,NaN,NaN,NaN,NaN,NaN,0,0,0,0,NaN,NaN,NaN,NaN,2,0,2,0,0,39,39,39,NaN,NaN,NaN,NaN,NaN,NaN,NaN,NaN,NaN,NaN,NaN,NaN,NaN,NaN,NaN,NaN,NaN,NaN,NaN,NaN,NaN,,NaN,NaN,NaN,NaN,NaN,NaN,NaN,NaN,NaN,NaN,NaN,,,NaN,NaN,NaN,NaN,1188.11502890009,1188.11502890009,1188.11502890009,1188.11502890009,1188.11502890009,1.72067901234568,0.833926999941468,ScrollUp,정답,1188.94891429972,1188.94891429972,1189.44912019977,1189.95726229995,NaN,,NaN,NaN,NaN,,,NaN,,,NaN,NaN,NaN,,NaN,NaN,NaN,NaN,NaN,NaN,NaN,10,51,여자,yes,yes,yes,yes,no,2023-07-28_10h15.28.383,Main,2022.2.4,60.2180375603356
41,나를 데려가줘,6,Orange,B,0,0,ScrollDown,ScrollUp,Orange.png,3,NonTarget,NonTarget,,,NaN,,,NaN,NaN,NaN,NaN,NaN,NaN,NaN,NaN,NaN,NaN,NaN,NaN,0,0,0,0,NaN,NaN,NaN,NaN,NaN,NaN,NaN,NaN,0,0,0,0,NaN,NaN,NaN,NaN,2,0,2,0,0,40,40,40,NaN,NaN,NaN,NaN,NaN,NaN,NaN,NaN,NaN,NaN,NaN,NaN,NaN,NaN,NaN,NaN,NaN,NaN,NaN,NaN,NaN,,NaN,NaN,NaN,NaN,NaN,NaN,NaN,NaN,NaN,NaN,NaN,,,NaN,NaN,NaN,NaN,1189.95726229995,1189.95726229995,1189.95726229995,1189.95726229995,1189.95726229995,1.76388888888889,0.748657300136983,ScrollUp,오답,1190.71564469999,1190.71564469999,1191.21578889992,1191.72205229988,NaN,,NaN,NaN,NaN,,,NaN,,,NaN,NaN,NaN,,NaN,NaN,NaN,NaN,NaN,NaN,NaN,10,51,여자,yes,yes,yes,yes,no,2023-07-28_10h15.28.383,Main,2022.2.4,60.2180375603356
42,넌 성숙해,2,Orange,B,5.83333333333333,4.53333333333333,ScrollUp,ScrollDown,Orange.png,3,Positive,Incongruent,,,NaN,,,NaN,NaN,NaN,NaN,NaN,NaN,NaN,NaN,NaN,NaN,NaN,NaN,0,0,0,0,NaN,NaN,NaN,NaN,NaN,NaN,NaN,NaN,0,0,0,0,NaN,NaN,NaN,NaN,2,0,2,0,0,41,41,41,NaN,NaN,NaN,NaN,NaN,NaN,NaN,NaN,NaN,NaN,NaN,NaN,NaN,NaN,NaN,NaN,NaN,NaN,NaN,NaN,NaN,,NaN,NaN,NaN,NaN,NaN,NaN,NaN,NaN,NaN,NaN,NaN,,,NaN,NaN,NaN,NaN,1191.72205229988,1191.72205229988,1191.72205229988,1191.72205229988,1191.72205229988,1.80401234567901,1.03232409991324,ScrollUp,정답,1192.76560080005,1192.76560080005,1193.26601050003,1193.76651189988,NaN,,NaN,NaN,NaN,,,NaN,,,NaN,NaN,NaN,,NaN,NaN,NaN,NaN,NaN,NaN,NaN,10,51,여자,yes,yes,yes,yes,no,2023-07-28_10h15.28.383,Main,2022.2.4,60.2180375603356
NaN,,NaN,,,NaN,NaN,,,,NaN,,,,,NaN,,,NaN,NaN,NaN,NaN,NaN,NaN,NaN,NaN,NaN,NaN,NaN,NaN,0,0,0,0,NaN,NaN,NaN,NaN,NaN,NaN,NaN,NaN,0,0,0,0,NaN,NaN,NaN,NaN,2,0,2,0,NaN,NaN,NaN,NaN,NaN,NaN,NaN,NaN,NaN,NaN,NaN,NaN,NaN,NaN,NaN,NaN,NaN,NaN,NaN,NaN,NaN,NaN,NaN,NaN,NaN,,NaN,NaN,NaN,NaN,NaN,NaN,NaN,NaN,NaN,NaN,NaN,,,NaN,NaN,NaN,NaN,NaN,NaN,NaN,NaN,NaN,NaN,NaN,,,NaN,NaN,NaN,NaN,4,,NaN,NaN,NaN,,,NaN,,,NaN,NaN,NaN,,NaN,NaN,NaN,NaN,NaN,NaN,NaN,10,51,여자,yes,yes,yes,yes,no,2023-07-28_10h15.28.383,Main,2022.2.4,60.2180375603356
