TrialNum,Word,WordCategory,FishType,WordList,WordValence,WordReputation,CorrectResp,IncorrectResp,FishTypeFile,Round,WordType,Condition,target,distractor,set,ans1,ans2,weather_thisRepN,weather_thisTrialN,weather_thisN,weather_thisIndex,wth_repeat_prac_thisRepN,wth_repeat_prac_thisTrialN,wth_repeat_prac_thisN,wth_repeat_prac_thisIndex,wth_trials_thisRepN,wth_trials_thisTrialN,wth_trials_thisN,wth_trials_thisIndex,total_experiment_thisRepN,total_experiment_thisTrialN,total_experiment_thisN,total_experiment_thisIndex,boat_thisRepN,boat_thisTrialN,boat_thisN,boat_thisIndex,para_thisRepN,para_thisTrialN,para_thisN,para_thisIndex,fish_thisRepN,fish_thisTrialN,fish_thisN,fish_thisIndex,fis_temp_thisRepN,fis_temp_thisTrialN,fis_temp_thisN,fis_temp_thisIndex,fis_round_thisRepN,fis_round_thisTrialN,fis_round_thisN,fis_round_thisIndex,fis_trials_thisRepN,fis_trials_thisTrialN,fis_trials_thisN,fis_trials_thisIndex,fis_main_break_thisRepN,fis_main_break_thisTrialN,fis_main_break_thisN,fis_main_break_thisIndex,flanker_prac_loop_thisRepN,flanker_prac_loop_thisTrialN,flanker_prac_loop_thisN,flanker_prac_loop_thisIndex,flanker_main_loop_thisRepN,flanker_main_loop_thisTrialN,flanker_main_loop_thisN,flanker_main_loop_thisIndex,para_prac_loop_thisRepN,para_prac_loop_thisTrialN,para_prac_loop_thisN,para_prac_loop_thisIndex,para_main_loop_thisRepN,para_main_loop_thisTrialN,para_main_loop_thisN,para_main_loop_thisIndex,stimulus_interval,wth_resp,wth_rt,wth_valence_rating_2_response,wth_self_rating_2_response,wth_valence_rating_response,wth_self_rating_response,fis_slider_2_started,Fish_2_started,fis_WordBox_2_started,fis_Words_2_started,fis_slider_2_response,fis_slider_2_rt,Response_2,Feedback_2,fis_BackGround_Feedback_2_started,fis_Feedbacks_2_started,fis_Feedbacks_2_stopped,fis_BackGround_Feedback_2_stopped,fis_slider_started,fis_BackGround_started,Fish_started,fis_WordBox_started,fis_Words_started,fis_slider_response,fis_slider_rt,Response,Feedback,fis_BackGround_Feedback_started,fis_Feedbacks_started,fis_Feedbacks_stopped,fis_BackGround_Feedback_stopped,fis_roundN,main_prac,fl_cold,fl_colt,fl_set,fl_dcond,fl_tcond,targ_started,fl_ans,fl_res,fl_corr,fl_rt,fl_rt_2,fl_key_resp_keys,st_ans,st_res,st_corr,st_rt,st_rt2,st2_resp_keys,st2_resp_corr,id_,x___,x__,weather,boat,parachute,fish,test_mode,date,expName,psychopyVersion,frameRate
NaN,,NaN,,,NaN,NaN,,,,NaN,,,,,NaN,,,0,0,0,0,0,0,0,0,NaN,NaN,NaN,NaN,NaN,NaN,NaN,NaN,NaN,NaN,NaN,NaN,NaN,NaN,NaN,NaN,NaN,NaN,NaN,NaN,NaN,NaN,NaN,NaN,NaN,NaN,NaN,NaN,NaN,NaN,NaN,NaN,NaN,NaN,NaN,NaN,NaN,NaN,NaN,NaN,NaN,NaN,NaN,NaN,NaN,NaN,NaN,NaN,NaN,NaN,NaN,NaN,30, 맥도날드
,15.3842438999563,0.810699588477366,0.843621399176955,NaN,NaN,NaN,NaN,NaN,NaN,NaN,NaN,,,NaN,NaN,NaN,NaN,NaN,NaN,NaN,NaN,NaN,NaN,NaN,,,NaN,NaN,NaN,NaN,NaN,,NaN,NaN,NaN,,,NaN,,,NaN,NaN,NaN,,NaN,NaN,NaN,NaN,NaN,NaN,NaN,10,27,남자,yes,yes,yes,yes,no,2023-04-10_16h28.52.646,Main,2022.2.4,29.8712459722135
NaN,,NaN,,,NaN,NaN,,,,NaN,,,,,NaN,,,0,0,0,0,NaN,NaN,NaN,NaN,0,0,0,0,NaN,NaN,NaN,NaN,NaN,NaN,NaN,NaN,NaN,NaN,NaN,NaN,NaN,NaN,NaN,NaN,NaN,NaN,NaN,NaN,NaN,NaN,NaN,NaN,NaN,NaN,NaN,NaN,NaN,NaN,NaN,NaN,NaN,NaN,NaN,NaN,NaN,NaN,NaN,NaN,NaN,NaN,NaN,NaN,NaN,NaN,NaN,NaN,30,체지방률,9.01493930001743,NaN,NaN,-0.740740740740741,0.748971193415638,NaN,NaN,NaN,NaN,NaN,NaN,,,NaN,NaN,NaN,NaN,NaN,NaN,NaN,NaN,NaN,NaN,NaN,,,NaN,NaN,NaN,NaN,NaN,,NaN,NaN,NaN,,,NaN,,,NaN,NaN,NaN,,NaN,NaN,NaN,NaN,NaN,NaN,NaN,10,27,남자,yes,yes,yes,yes,no,2023-04-10_16h28.52.646,Main,2022.2.4,29.8712459722135
NaN,,NaN,,,NaN,NaN,,,,NaN,,,,,NaN,,,0,0,0,0,NaN,NaN,NaN,NaN,1,0,1,0,NaN,NaN,NaN,NaN,NaN,NaN,NaN,NaN,NaN,NaN,NaN,NaN,NaN,NaN,NaN,NaN,NaN,NaN,NaN,NaN,NaN,NaN,NaN,NaN,NaN,NaN,NaN,NaN,NaN,NaN,NaN,NaN,NaN,NaN,NaN,NaN,NaN,NaN,NaN,NaN,NaN,NaN,NaN,NaN,NaN,NaN,NaN,NaN,30,퇴근,4.9582861000672,NaN,NaN,1,0.497942386831276,NaN,NaN,NaN,NaN,NaN,NaN,,,NaN,NaN,NaN,NaN,NaN,NaN,NaN,NaN,NaN,NaN,NaN,,,NaN,NaN,NaN,NaN,NaN,,NaN,NaN,NaN,,,NaN,,,NaN,NaN,NaN,,NaN,NaN,NaN,NaN,NaN,NaN,NaN,10,27,남자,yes,yes,yes,yes,no,2023-04-10_16h28.52.646,Main,2022.2.4,29.8712459722135
NaN,,NaN,,,NaN,NaN,,,,NaN,,,,,NaN,,,0,0,0,0,NaN,NaN,NaN,NaN,2,0,2,0,NaN,NaN,NaN,NaN,NaN,NaN,NaN,NaN,NaN,NaN,NaN,NaN,NaN,NaN,NaN,NaN,NaN,NaN,NaN,NaN,NaN,NaN,NaN,NaN,NaN,NaN,NaN,NaN,NaN,NaN,NaN,NaN,NaN,NaN,NaN,NaN,NaN,NaN,NaN,NaN,NaN,NaN,NaN,NaN,NaN,NaN,NaN,NaN,30,운동,4.75677820015699,NaN,NaN,-0.37037037037037,0.104938271604938,NaN,NaN,NaN,NaN,NaN,NaN,,,NaN,NaN,NaN,NaN,NaN,NaN,NaN,NaN,NaN,NaN,NaN,,,NaN,NaN,NaN,NaN,NaN,,NaN,NaN,NaN,,,NaN,,,NaN,NaN,NaN,,NaN,NaN,NaN,NaN,NaN,NaN,NaN,10,27,남자,yes,yes,yes,yes,no,2023-04-10_16h28.52.646,Main,2022.2.4,29.8712459722135
NaN,,NaN,,,NaN,NaN,,,,NaN,,,,,NaN,,,0,0,0,0,NaN,NaN,NaN,NaN,3,0,3,0,NaN,NaN,NaN,NaN,NaN,NaN,NaN,NaN,NaN,NaN,NaN,NaN,NaN,NaN,NaN,NaN,NaN,NaN,NaN,NaN,NaN,NaN,NaN,NaN,NaN,NaN,NaN,NaN,NaN,NaN,NaN,NaN,NaN,NaN,NaN,NaN,NaN,NaN,NaN,NaN,NaN,NaN,NaN,NaN,NaN,NaN,NaN,NaN,30,군대,17.6142273000441,NaN,NaN,-1,0.876543209876543,NaN,NaN,NaN,NaN,NaN,NaN,,,NaN,NaN,NaN,NaN,NaN,NaN,NaN,NaN,NaN,NaN,NaN,,,NaN,NaN,NaN,NaN,NaN,,NaN,NaN,NaN,,,NaN,,,NaN,NaN,NaN,,NaN,NaN,NaN,NaN,NaN,NaN,NaN,10,27,남자,yes,yes,yes,yes,no,2023-04-10_16h28.52.646,Main,2022.2.4,29.8712459722135
1,넌 교활해,5,Orange,B,2.33333333333333,2.13333333333333,ScrollUp,ScrollDown,Orange.png,NaN,,,,,NaN,,,NaN,NaN,NaN,NaN,NaN,NaN,NaN,NaN,NaN,NaN,NaN,NaN,0,0,0,0,NaN,NaN,NaN,NaN,NaN,NaN,NaN,NaN,0,0,0,0,0,0,0,0,NaN,NaN,NaN,NaN,NaN,NaN,NaN,NaN,NaN,NaN,NaN,NaN,NaN,NaN,NaN,NaN,NaN,NaN,NaN,NaN,NaN,NaN,NaN,NaN,NaN,NaN,NaN,NaN,NaN,,NaN,NaN,NaN,NaN,NaN,387.12836480001,387.12836480001,387.12836480001,387.12836480001,2,1.90190450008959,ScrollUp,정답,389.048405600013,389.048405600013,389.548868400045,390.057252899976,NaN,NaN,NaN,NaN,NaN,NaN,NaN,,,NaN,NaN,NaN,NaN,NaN,,NaN,NaN,NaN,,,NaN,,,NaN,NaN,NaN,,NaN,NaN,NaN,NaN,NaN,NaN,NaN,10,27,남자,yes,yes,yes,yes,no,2023-04-10_16h28.52.646,Main,2022.2.4,29.8712459722135
2,넌 슬기로워,2,Green,A,6.16666666666667,4.1,ScrollDown,ScrollUp,Green.png,NaN,,,,,NaN,,,NaN,NaN,NaN,NaN,NaN,NaN,NaN,NaN,NaN,NaN,NaN,NaN,0,0,0,0,NaN,NaN,NaN,NaN,NaN,NaN,NaN,NaN,0,0,0,0,0,1,1,1,NaN,NaN,NaN,NaN,NaN,NaN,NaN,NaN,NaN,NaN,NaN,NaN,NaN,NaN,NaN,NaN,NaN,NaN,NaN,NaN,NaN,NaN,NaN,NaN,NaN,NaN,NaN,NaN,NaN,,NaN,NaN,NaN,NaN,NaN,390.057252899976,390.057252899976,390.057252899976,390.057252899976,1,2.29916709987447,ScrollDown,정답,392.382186500123,392.382186500123,392.882188300136,393.384327100124,NaN,NaN,NaN,NaN,NaN,NaN,NaN,,,NaN,NaN,NaN,NaN,NaN,,NaN,NaN,NaN,,,NaN,,,NaN,NaN,NaN,,NaN,NaN,NaN,NaN,NaN,NaN,NaN,10,27,남자,yes,yes,yes,yes,no,2023-04-10_16h28.52.646,Main,2022.2.4,29.8712459722135
3,나를 보내줘,6,Green,A,0,0,ScrollUp,ScrollDown,Green.png,NaN,,,,,NaN,,,NaN,NaN,NaN,NaN,NaN,NaN,NaN,NaN,NaN,NaN,NaN,NaN,0,0,0,0,NaN,NaN,NaN,NaN,NaN,NaN,NaN,NaN,0,0,0,0,0,2,2,2,NaN,NaN,NaN,NaN,NaN,NaN,NaN,NaN,NaN,NaN,NaN,NaN,NaN,NaN,NaN,NaN,NaN,NaN,NaN,NaN,NaN,NaN,NaN,NaN,NaN,NaN,NaN,NaN,NaN,,NaN,NaN,NaN,NaN,NaN,393.384327100124,393.384327100124,393.384327100124,393.384327100124,2,1.26659210002981,ScrollUp,정답,394.681882299948,394.681882299948,395.181839100085,395.684015300125,NaN,NaN,NaN,NaN,NaN,NaN,NaN,,,NaN,NaN,NaN,NaN,NaN,,NaN,NaN,NaN,,,NaN,,,NaN,NaN,NaN,,NaN,NaN,NaN,NaN,NaN,NaN,NaN,10,27,남자,yes,yes,yes,yes,no,2023-04-10_16h28.52.646,Main,2022.2.4,29.8712459722135
4,나를 데려가줘,6,Orange,B,0,0,ScrollDown,ScrollUp,Orange.png,NaN,,,,,NaN,,,NaN,NaN,NaN,NaN,NaN,NaN,NaN,NaN,NaN,NaN,NaN,NaN,0,0,0,0,NaN,NaN,NaN,NaN,NaN,NaN,NaN,NaN,0,0,0,0,0,3,3,3,NaN,NaN,NaN,NaN,NaN,NaN,NaN,NaN,NaN,NaN,NaN,NaN,NaN,NaN,NaN,NaN,NaN,NaN,NaN,NaN,NaN,NaN,NaN,NaN,NaN,NaN,NaN,NaN,NaN,,NaN,NaN,NaN,NaN,NaN,395.684015300125,395.684015300125,395.684015300125,395.684015300125,1,1.13259249995463,ScrollDown,정답,396.848299999954,396.848299999954,397.3484720001,397.848421100061,NaN,NaN,NaN,NaN,NaN,NaN,NaN,,,NaN,NaN,NaN,NaN,NaN,,NaN,NaN,NaN,,,NaN,,,NaN,NaN,NaN,,NaN,NaN,NaN,NaN,NaN,NaN,NaN,10,27,남자,yes,yes,yes,yes,no,2023-04-10_16h28.52.646,Main,2022.2.4,29.8712459722135
1,넌 교활해,5,Orange,B,2.33333333333333,2.13333333333333,ScrollUp,ScrollDown,Orange.png,NaN,,,,,NaN,,,NaN,NaN,NaN,NaN,NaN,NaN,NaN,NaN,NaN,NaN,NaN,NaN,0,0,0,0,NaN,NaN,NaN,NaN,NaN,NaN,NaN,NaN,0,0,0,0,1,0,4,0,NaN,NaN,NaN,NaN,NaN,NaN,NaN,NaN,NaN,NaN,NaN,NaN,NaN,NaN,NaN,NaN,NaN,NaN,NaN,NaN,NaN,NaN,NaN,NaN,NaN,NaN,NaN,NaN,NaN,,NaN,NaN,NaN,NaN,NaN,397.848421100061,397.848421100061,397.848421100061,397.848421100061,2,1.29921999992803,ScrollUp,정답,399.181766200112,399.181766200112,399.681781700114,400.181758800056,NaN,NaN,NaN,NaN,NaN,NaN,NaN,,,NaN,NaN,NaN,NaN,NaN,,NaN,NaN,NaN,,,NaN,,,NaN,NaN,NaN,,NaN,NaN,NaN,NaN,NaN,NaN,NaN,10,27,남자,yes,yes,yes,yes,no,2023-04-10_16h28.52.646,Main,2022.2.4,29.8712459722135
2,넌 슬기로워,2,Green,A,6.16666666666667,4.1,ScrollDown,ScrollUp,Green.png,NaN,,,,,NaN,,,NaN,NaN,NaN,NaN,NaN,NaN,NaN,NaN,NaN,NaN,NaN,NaN,0,0,0,0,NaN,NaN,NaN,NaN,NaN,NaN,NaN,NaN,0,0,0,0,1,1,5,1,NaN,NaN,NaN,NaN,NaN,NaN,NaN,NaN,NaN,NaN,NaN,NaN,NaN,NaN,NaN,NaN,NaN,NaN,NaN,NaN,NaN,NaN,NaN,NaN,NaN,NaN,NaN,NaN,NaN,,NaN,NaN,NaN,NaN,NaN,400.181758800056,400.181758800056,400.181758800056,400.181758800056,1,1.03946730005555,ScrollDown,정답,401.248537200037,401.248537200037,401.74843450007,402.249223999912,NaN,NaN,NaN,NaN,NaN,NaN,NaN,,,NaN,NaN,NaN,NaN,NaN,,NaN,NaN,NaN,,,NaN,,,NaN,NaN,NaN,,NaN,NaN,NaN,NaN,NaN,NaN,NaN,10,27,남자,yes,yes,yes,yes,no,2023-04-10_16h28.52.646,Main,2022.2.4,29.8712459722135
3,나를 보내줘,6,Green,A,0,0,ScrollUp,ScrollDown,Green.png,NaN,,,,,NaN,,,NaN,NaN,NaN,NaN,NaN,NaN,NaN,NaN,NaN,NaN,NaN,NaN,0,0,0,0,NaN,NaN,NaN,NaN,NaN,NaN,NaN,NaN,0,0,0,0,1,2,6,2,NaN,NaN,NaN,NaN,NaN,NaN,NaN,NaN,NaN,NaN,NaN,NaN,NaN,NaN,NaN,NaN,NaN,NaN,NaN,NaN,NaN,NaN,NaN,NaN,NaN,NaN,NaN,NaN,NaN,,NaN,NaN,NaN,NaN,NaN,402.249223999912,402.249223999912,402.249223999912,402.249223999912,2,1.26466599991545,ScrollUp,정답,403.54840570013,403.54840570013,404.048298500013,404.55933129997,NaN,NaN,NaN,NaN,NaN,NaN,NaN,,,NaN,NaN,NaN,NaN,NaN,,NaN,NaN,NaN,,,NaN,,,NaN,NaN,NaN,,NaN,NaN,NaN,NaN,NaN,NaN,NaN,10,27,남자,yes,yes,yes,yes,no,2023-04-10_16h28.52.646,Main,2022.2.4,29.8712459722135
4,나를 데려가줘,6,Orange,B,0,0,ScrollDown,ScrollUp,Orange.png,NaN,,,,,NaN,,,NaN,NaN,NaN,NaN,NaN,NaN,NaN,NaN,NaN,NaN,NaN,NaN,0,0,0,0,NaN,NaN,NaN,NaN,NaN,NaN,NaN,NaN,0,0,0,0,1,3,7,3,NaN,NaN,NaN,NaN,NaN,NaN,NaN,NaN,NaN,NaN,NaN,NaN,NaN,NaN,NaN,NaN,NaN,NaN,NaN,NaN,NaN,NaN,NaN,NaN,NaN,NaN,NaN,NaN,NaN,,NaN,NaN,NaN,NaN,NaN,404.55933129997,404.55933129997,404.55933129997,404.55933129997,1,1.46578259998932,ScrollDown,정답,406.048440600047,406.048440600047,406.54842830007,407.048418299994,NaN,NaN,NaN,NaN,NaN,NaN,NaN,,,NaN,NaN,NaN,NaN,NaN,,NaN,NaN,NaN,,,NaN,,,NaN,NaN,NaN,,NaN,NaN,NaN,NaN,NaN,NaN,NaN,10,27,남자,yes,yes,yes,yes,no,2023-04-10_16h28.52.646,Main,2022.2.4,29.8712459722135
1,넌 교활해,5,Orange,B,2.33333333333333,2.13333333333333,ScrollUp,ScrollDown,Orange.png,NaN,,,,,NaN,,,NaN,NaN,NaN,NaN,NaN,NaN,NaN,NaN,NaN,NaN,NaN,NaN,0,0,0,0,NaN,NaN,NaN,NaN,NaN,NaN,NaN,NaN,0,0,0,0,2,0,8,0,NaN,NaN,NaN,NaN,NaN,NaN,NaN,NaN,NaN,NaN,NaN,NaN,NaN,NaN,NaN,NaN,NaN,NaN,NaN,NaN,NaN,NaN,NaN,NaN,NaN,NaN,NaN,NaN,NaN,,NaN,NaN,NaN,NaN,NaN,407.048418299994,407.048418299994,407.048418299994,407.048418299994,2,1.16631140001118,ScrollUp,정답,408.248429100029,408.248429100029,408.748448099941,409.248084899969,NaN,NaN,NaN,NaN,NaN,NaN,NaN,,,NaN,NaN,NaN,NaN,NaN,,NaN,NaN,NaN,,,NaN,,,NaN,NaN,NaN,,NaN,NaN,NaN,NaN,NaN,NaN,NaN,10,27,남자,yes,yes,yes,yes,no,2023-04-10_16h28.52.646,Main,2022.2.4,29.8712459722135
2,넌 슬기로워,2,Green,A,6.16666666666667,4.1,ScrollDown,ScrollUp,Green.png,NaN,,,,,NaN,,,NaN,NaN,NaN,NaN,NaN,NaN,NaN,NaN,NaN,NaN,NaN,NaN,0,0,0,0,NaN,NaN,NaN,NaN,NaN,NaN,NaN,NaN,0,0,0,0,2,1,9,1,NaN,NaN,NaN,NaN,NaN,NaN,NaN,NaN,NaN,NaN,NaN,NaN,NaN,NaN,NaN,NaN,NaN,NaN,NaN,NaN,NaN,NaN,NaN,NaN,NaN,NaN,NaN,NaN,NaN,,NaN,NaN,NaN,NaN,NaN,409.248084899969,409.248084899969,409.248084899969,409.248084899969,1,1.03812390007079,ScrollDown,정답,410.315089599928,410.315089599928,410.815297099994,411.316678399919,NaN,NaN,NaN,NaN,NaN,NaN,NaN,,,NaN,NaN,NaN,NaN,NaN,,NaN,NaN,NaN,,,NaN,,,NaN,NaN,NaN,,NaN,NaN,NaN,NaN,NaN,NaN,NaN,10,27,남자,yes,yes,yes,yes,no,2023-04-10_16h28.52.646,Main,2022.2.4,29.8712459722135
3,나를 보내줘,6,Green,A,0,0,ScrollUp,ScrollDown,Green.png,NaN,,,,,NaN,,,NaN,NaN,NaN,NaN,NaN,NaN,NaN,NaN,NaN,NaN,NaN,NaN,0,0,0,0,NaN,NaN,NaN,NaN,NaN,NaN,NaN,NaN,0,0,0,0,2,2,10,2,NaN,NaN,NaN,NaN,NaN,NaN,NaN,NaN,NaN,NaN,NaN,NaN,NaN,NaN,NaN,NaN,NaN,NaN,NaN,NaN,NaN,NaN,NaN,NaN,NaN,NaN,NaN,NaN,NaN,,NaN,NaN,NaN,NaN,NaN,411.316678399919,411.316678399919,411.316678399919,411.316678399919,2,1.16387829999439,ScrollUp,정답,412.515247799922,412.515247799922,413.01512310002,413.549447699916,NaN,NaN,NaN,NaN,NaN,NaN,NaN,,,NaN,NaN,NaN,NaN,NaN,,NaN,NaN,NaN,,,NaN,,,NaN,NaN,NaN,,NaN,NaN,NaN,NaN,NaN,NaN,NaN,10,27,남자,yes,yes,yes,yes,no,2023-04-10_16h28.52.646,Main,2022.2.4,29.8712459722135
4,나를 데려가줘,6,Orange,B,0,0,ScrollDown,ScrollUp,Orange.png,NaN,,,,,NaN,,,NaN,NaN,NaN,NaN,NaN,NaN,NaN,NaN,NaN,NaN,NaN,NaN,0,0,0,0,NaN,NaN,NaN,NaN,NaN,NaN,NaN,NaN,0,0,0,0,2,3,11,3,NaN,NaN,NaN,NaN,NaN,NaN,NaN,NaN,NaN,NaN,NaN,NaN,NaN,NaN,NaN,NaN,NaN,NaN,NaN,NaN,NaN,NaN,NaN,NaN,NaN,NaN,NaN,NaN,NaN,,NaN,NaN,NaN,NaN,NaN,413.549447699916,413.549447699916,413.549447699916,413.549447699916,1,1.07864000019617,ScrollDown,정답,414.631754799979,414.631754799979,415.131983200088,415.631999399979,NaN,NaN,NaN,NaN,NaN,NaN,NaN,,,NaN,NaN,NaN,NaN,NaN,,NaN,NaN,NaN,,,NaN,,,NaN,NaN,NaN,,NaN,NaN,NaN,NaN,NaN,NaN,NaN,10,27,남자,yes,yes,yes,yes,no,2023-04-10_16h28.52.646,Main,2022.2.4,29.8712459722135
1,넌 따뜻해,1,Orange,B,6.08333333333333,5.6,ScrollUp,ScrollDown,Orange.png,1,Positive,Incongruent,,,NaN,,,NaN,NaN,NaN,NaN,NaN,NaN,NaN,NaN,NaN,NaN,NaN,NaN,0,0,0,0,NaN,NaN,NaN,NaN,NaN,NaN,NaN,NaN,0,0,0,0,NaN,NaN,NaN,NaN,0,0,0,0,0,0,0,0,NaN,NaN,NaN,NaN,NaN,NaN,NaN,NaN,NaN,NaN,NaN,NaN,NaN,NaN,NaN,NaN,NaN,NaN,NaN,NaN,NaN,,NaN,NaN,NaN,NaN,NaN,NaN,NaN,NaN,NaN,NaN,NaN,,,NaN,NaN,NaN,NaN,425.102713400032,425.102713400032,425.102713400032,425.102713400032,425.102713400032,1.92901234567901,1.53003039979376,ScrollUp,정답,426.648384799948,426.648384799948,427.14850040013,427.657485200092,NaN,,NaN,NaN,NaN,,,NaN,,,NaN,NaN,NaN,,NaN,NaN,NaN,NaN,NaN,NaN,NaN,10,27,남자,yes,yes,yes,yes,no,2023-04-10_16h28.52.646,Main,2022.2.4,29.8712459722135
2,넌 기품있어,2,Orange,B,5.79166666666667,4.5,ScrollUp,ScrollDown,Orange.png,1,Positive,Incongruent,,,NaN,,,NaN,NaN,NaN,NaN,NaN,NaN,NaN,NaN,NaN,NaN,NaN,NaN,0,0,0,0,NaN,NaN,NaN,NaN,NaN,NaN,NaN,NaN,0,0,0,0,NaN,NaN,NaN,NaN,0,0,0,0,0,1,1,1,NaN,NaN,NaN,NaN,NaN,NaN,NaN,NaN,NaN,NaN,NaN,NaN,NaN,NaN,NaN,NaN,NaN,NaN,NaN,NaN,NaN,,NaN,NaN,NaN,NaN,NaN,NaN,NaN,NaN,NaN,NaN,NaN,,,NaN,NaN,NaN,NaN,427.657485200092,427.657485200092,427.657485200092,427.657485200092,427.657485200092,2,0.931935800006613,ScrollUp,정답,428.615030100103,428.615030100103,429.115226899972,429.621343099978,NaN,,NaN,NaN,NaN,,,NaN,,,NaN,NaN,NaN,,NaN,NaN,NaN,NaN,NaN,NaN,NaN,10,27,남자,yes,yes,yes,yes,no,2023-04-10_16h28.52.646,Main,2022.2.4,29.8712459722135
3,나를 보내줘,6,Green,A,0,0,ScrollUp,ScrollDown,Green.png,1,NonTarget,NonTarget,,,NaN,,,NaN,NaN,NaN,NaN,NaN,NaN,NaN,NaN,NaN,NaN,NaN,NaN,0,0,0,0,NaN,NaN,NaN,NaN,NaN,NaN,NaN,NaN,0,0,0,0,NaN,NaN,NaN,NaN,0,0,0,0,0,2,2,2,NaN,NaN,NaN,NaN,NaN,NaN,NaN,NaN,NaN,NaN,NaN,NaN,NaN,NaN,NaN,NaN,NaN,NaN,NaN,NaN,NaN,,NaN,NaN,NaN,NaN,NaN,NaN,NaN,NaN,NaN,NaN,NaN,,,NaN,NaN,NaN,NaN,429.621343099978,429.621343099978,429.621343099978,429.621343099978,429.621343099978,2,1.03937110002153,ScrollUp,정답,430.681801999919,430.681801999919,431.181842900114,431.705834799912,NaN,,NaN,NaN,NaN,,,NaN,,,NaN,NaN,NaN,,NaN,NaN,NaN,NaN,NaN,NaN,NaN,10,27,남자,yes,yes,yes,yes,no,2023-04-10_16h28.52.646,Main,2022.2.4,29.8712459722135
4,넌 수동적이야,4,Green,A,2.83333333333333,2.93333333333333,ScrollDown,ScrollUp,Green.png,1,Negative,Incongruent,,,NaN,,,NaN,NaN,NaN,NaN,NaN,NaN,NaN,NaN,NaN,NaN,NaN,NaN,0,0,0,0,NaN,NaN,NaN,NaN,NaN,NaN,NaN,NaN,0,0,0,0,NaN,NaN,NaN,NaN,0,0,0,0,0,3,3,3,NaN,NaN,NaN,NaN,NaN,NaN,NaN,NaN,NaN,NaN,NaN,NaN,NaN,NaN,NaN,NaN,NaN,NaN,NaN,NaN,NaN,,NaN,NaN,NaN,NaN,NaN,NaN,NaN,NaN,NaN,NaN,NaN,,,NaN,NaN,NaN,NaN,431.705834799912,431.705834799912,431.705834799912,431.705834799912,431.705834799912,1,1.14764669979922,ScrollDown,정답,432.865637999959,432.865637999959,433.364981000079,433.867830500007,NaN,,NaN,NaN,NaN,,,NaN,,,NaN,NaN,NaN,,NaN,NaN,NaN,NaN,NaN,NaN,NaN,10,27,남자,yes,yes,yes,yes,no,2023-04-10_16h28.52.646,Main,2022.2.4,29.8712459722135
5,넌 사심이 없어,3,Orange,B,4.91666666666667,4.33333333333333,ScrollUp,ScrollDown,Orange.png,1,Neutral,Neutral,,,NaN,,,NaN,NaN,NaN,NaN,NaN,NaN,NaN,NaN,NaN,NaN,NaN,NaN,0,0,0,0,NaN,NaN,NaN,NaN,NaN,NaN,NaN,NaN,0,0,0,0,NaN,NaN,NaN,NaN,0,0,0,0,0,4,4,4,NaN,NaN,NaN,NaN,NaN,NaN,NaN,NaN,NaN,NaN,NaN,NaN,NaN,NaN,NaN,NaN,NaN,NaN,NaN,NaN,NaN,,NaN,NaN,NaN,NaN,NaN,NaN,NaN,NaN,NaN,NaN,NaN,,,NaN,NaN,NaN,NaN,433.867830500007,433.867830500007,433.867830500007,433.867830500007,433.867830500007,1.85185185185185,0.938074299832806,ScrollUp,정답,434.832196299918,434.832196299918,435.332191399997,435.842305799946,NaN,,NaN,NaN,NaN,,,NaN,,,NaN,NaN,NaN,,NaN,NaN,NaN,NaN,NaN,NaN,NaN,10,27,남자,yes,yes,yes,yes,no,2023-04-10_16h28.52.646,Main,2022.2.4,29.8712459722135
6,넌 헤퍼,5,Green,A,2.45833333333333,2.23333333333333,ScrollDown,ScrollUp,Green.png,1,Negative,Incongruent,,,NaN,,,NaN,NaN,NaN,NaN,NaN,NaN,NaN,NaN,NaN,NaN,NaN,NaN,0,0,0,0,NaN,NaN,NaN,NaN,NaN,NaN,NaN,NaN,0,0,0,0,NaN,NaN,NaN,NaN,0,0,0,0,0,5,5,5,NaN,NaN,NaN,NaN,NaN,NaN,NaN,NaN,NaN,NaN,NaN,NaN,NaN,NaN,NaN,NaN,NaN,NaN,NaN,NaN,NaN,,NaN,NaN,NaN,NaN,NaN,NaN,NaN,NaN,NaN,NaN,NaN,,,NaN,NaN,NaN,NaN,435.842305799946,435.842305799946,435.842305799946,435.842305799946,435.842305799946,1.09876543209877,1.29947650013492,ScrollDown,정답,437.165193099994,437.165193099994,437.665175399976,438.167658600025,NaN,,NaN,NaN,NaN,,,NaN,,,NaN,NaN,NaN,,NaN,NaN,NaN,NaN,NaN,NaN,NaN,10,27,남자,yes,yes,yes,yes,no,2023-04-10_16h28.52.646,Main,2022.2.4,29.8712459722135
7,넌 말쑥해,3,Green,A,4.83333333333333,4.33333333333333,ScrollDown,ScrollUp,Green.png,1,Neutral,Neutral,,,NaN,,,NaN,NaN,NaN,NaN,NaN,NaN,NaN,NaN,NaN,NaN,NaN,NaN,0,0,0,0,NaN,NaN,NaN,NaN,NaN,NaN,NaN,NaN,0,0,0,0,NaN,NaN,NaN,NaN,0,0,0,0,0,6,6,6,NaN,NaN,NaN,NaN,NaN,NaN,NaN,NaN,NaN,NaN,NaN,NaN,NaN,NaN,NaN,NaN,NaN,NaN,NaN,NaN,NaN,,NaN,NaN,NaN,NaN,NaN,NaN,NaN,NaN,NaN,NaN,NaN,,,NaN,NaN,NaN,NaN,438.167658600025,438.167658600025,438.167658600025,438.167658600025,438.167658600025,1,0.932864899979904,ScrollDown,정답,439.131821000017,439.131821000017,439.631807300029,440.142973700073,NaN,,NaN,NaN,NaN,,,NaN,,,NaN,NaN,NaN,,NaN,NaN,NaN,NaN,NaN,NaN,NaN,10,27,남자,yes,yes,yes,yes,no,2023-04-10_16h28.52.646,Main,2022.2.4,29.8712459722135
8,넌 투덜거려,5,Orange,B,2.54166666666667,2.26666666666667,ScrollUp,ScrollDown,Orange.png,1,Negative,Congruent,,,NaN,,,NaN,NaN,NaN,NaN,NaN,NaN,NaN,NaN,NaN,NaN,NaN,NaN,0,0,0,0,NaN,NaN,NaN,NaN,NaN,NaN,NaN,NaN,0,0,0,0,NaN,NaN,NaN,NaN,0,0,0,0,0,7,7,7,NaN,NaN,NaN,NaN,NaN,NaN,NaN,NaN,NaN,NaN,NaN,NaN,NaN,NaN,NaN,NaN,NaN,NaN,NaN,NaN,NaN,,NaN,NaN,NaN,NaN,NaN,NaN,NaN,NaN,NaN,NaN,NaN,,,NaN,NaN,NaN,NaN,440.142973700073,440.142973700073,440.142973700073,440.142973700073,440.142973700073,1.84567901234568,0.934271200094372,ScrollUp,정답,441.098775400082,441.098775400082,441.598951499909,442.124299000017,NaN,,NaN,NaN,NaN,,,NaN,,,NaN,NaN,NaN,,NaN,NaN,NaN,NaN,NaN,NaN,NaN,10,27,남자,yes,yes,yes,yes,no,2023-04-10_16h28.52.646,Main,2022.2.4,29.8712459722135
9,넌 적극적이야,1,Green,A,5.70833333333333,5.53333333333333,ScrollDown,ScrollUp,Green.png,1,Positive,Congruent,,,NaN,,,NaN,NaN,NaN,NaN,NaN,NaN,NaN,NaN,NaN,NaN,NaN,NaN,0,0,0,0,NaN,NaN,NaN,NaN,NaN,NaN,NaN,NaN,0,0,0,0,NaN,NaN,NaN,NaN,0,0,0,0,0,8,8,8,NaN,NaN,NaN,NaN,NaN,NaN,NaN,NaN,NaN,NaN,NaN,NaN,NaN,NaN,NaN,NaN,NaN,NaN,NaN,NaN,NaN,,NaN,NaN,NaN,NaN,NaN,NaN,NaN,NaN,NaN,NaN,NaN,,,NaN,NaN,NaN,NaN,442.124299000017,442.124299000017,442.124299000017,442.124299000017,442.124299000017,1,0.981074400013313,ScrollDown,정답,443.115590499947,443.115590499947,443.61570319999,444.140487200115,NaN,,NaN,NaN,NaN,,,NaN,,,NaN,NaN,NaN,,NaN,NaN,NaN,NaN,NaN,NaN,NaN,10,27,남자,yes,yes,yes,yes,no,2023-04-10_16h28.52.646,Main,2022.2.4,29.8712459722135
10,넌 재미없어,4,Orange,B,2.625,2.96666666666667,ScrollUp,ScrollDown,Orange.png,1,Negative,Congruent,,,NaN,,,NaN,NaN,NaN,NaN,NaN,NaN,NaN,NaN,NaN,NaN,NaN,NaN,0,0,0,0,NaN,NaN,NaN,NaN,NaN,NaN,NaN,NaN,0,0,0,0,NaN,NaN,NaN,NaN,0,0,0,0,0,9,9,9,NaN,NaN,NaN,NaN,NaN,NaN,NaN,NaN,NaN,NaN,NaN,NaN,NaN,NaN,NaN,NaN,NaN,NaN,NaN,NaN,NaN,,NaN,NaN,NaN,NaN,NaN,NaN,NaN,NaN,NaN,NaN,NaN,,,NaN,NaN,NaN,NaN,444.140487200115,444.140487200115,444.140487200115,444.140487200115,444.140487200115,1.97685185185185,0.914755100151524,ScrollUp,정답,445.065018899972,445.065018899972,445.565115300007,446.096084800083,NaN,,NaN,NaN,NaN,,,NaN,,,NaN,NaN,NaN,,NaN,NaN,NaN,NaN,NaN,NaN,NaN,10,27,남자,yes,yes,yes,yes,no,2023-04-10_16h28.52.646,Main,2022.2.4,29.8712459722135
11,넌 명석해,2,Green,A,5.875,4.03333333333333,ScrollDown,ScrollUp,Green.png,1,Positive,Congruent,,,NaN,,,NaN,NaN,NaN,NaN,NaN,NaN,NaN,NaN,NaN,NaN,NaN,NaN,0,0,0,0,NaN,NaN,NaN,NaN,NaN,NaN,NaN,NaN,0,0,0,0,NaN,NaN,NaN,NaN,0,0,0,0,0,10,10,10,NaN,NaN,NaN,NaN,NaN,NaN,NaN,NaN,NaN,NaN,NaN,NaN,NaN,NaN,NaN,NaN,NaN,NaN,NaN,NaN,NaN,,NaN,NaN,NaN,NaN,NaN,NaN,NaN,NaN,NaN,NaN,NaN,,,NaN,NaN,NaN,NaN,446.096084800083,446.096084800083,446.096084800083,446.096084800083,446.096084800083,1,1.01273440010846,ScrollDown,정답,447.115166000091,447.115166000091,447.615178300068,448.123413299909,NaN,,NaN,NaN,NaN,,,NaN,,,NaN,NaN,NaN,,NaN,NaN,NaN,NaN,NaN,NaN,NaN,10,27,남자,yes,yes,yes,yes,no,2023-04-10_16h28.52.646,Main,2022.2.4,29.8712459722135
12,나를 데려가줘,6,Orange,B,0,0,ScrollDown,ScrollUp,Orange.png,1,NonTarget,NonTarget,,,NaN,,,NaN,NaN,NaN,NaN,NaN,NaN,NaN,NaN,NaN,NaN,NaN,NaN,0,0,0,0,NaN,NaN,NaN,NaN,NaN,NaN,NaN,NaN,0,0,0,0,NaN,NaN,NaN,NaN,0,0,0,0,0,11,11,11,NaN,NaN,NaN,NaN,NaN,NaN,NaN,NaN,NaN,NaN,NaN,NaN,NaN,NaN,NaN,NaN,NaN,NaN,NaN,NaN,NaN,,NaN,NaN,NaN,NaN,NaN,NaN,NaN,NaN,NaN,NaN,NaN,,,NaN,NaN,NaN,NaN,448.123413299909,448.123413299909,448.123413299909,448.123413299909,448.123413299909,1,1.16661459999159,ScrollDown,정답,449.314984000055,449.314984000055,449.815319800051,450.33978229994,NaN,,NaN,NaN,NaN,,,NaN,,,NaN,NaN,NaN,,NaN,NaN,NaN,NaN,NaN,NaN,NaN,10,27,남자,yes,yes,yes,yes,no,2023-04-10_16h28.52.646,Main,2022.2.4,29.8712459722135
13,넌 소심해,4,Green,A,3,3.1,ScrollDown,ScrollUp,Green.png,1,Negative,Incongruent,,,NaN,,,NaN,NaN,NaN,NaN,NaN,NaN,NaN,NaN,NaN,NaN,NaN,NaN,0,0,0,0,NaN,NaN,NaN,NaN,NaN,NaN,NaN,NaN,0,0,0,0,NaN,NaN,NaN,NaN,0,0,0,0,0,12,12,12,NaN,NaN,NaN,NaN,NaN,NaN,NaN,NaN,NaN,NaN,NaN,NaN,NaN,NaN,NaN,NaN,NaN,NaN,NaN,NaN,NaN,,NaN,NaN,NaN,NaN,NaN,NaN,NaN,NaN,NaN,NaN,NaN,,,NaN,NaN,NaN,NaN,450.33978229994,450.33978229994,450.33978229994,450.33978229994,450.33978229994,1,1.14731969987042,ScrollDown,정답,451.498529399978,451.498529399978,451.998465399956,452.519463900011,NaN,,NaN,NaN,NaN,,,NaN,,,NaN,NaN,NaN,,NaN,NaN,NaN,NaN,NaN,NaN,NaN,10,27,남자,yes,yes,yes,yes,no,2023-04-10_16h28.52.646,Main,2022.2.4,29.8712459722135
14,넌 합리적이야,2,Green,A,5.58333333333333,4.73333333333333,ScrollDown,ScrollUp,Green.png,1,Positive,Congruent,,,NaN,,,NaN,NaN,NaN,NaN,NaN,NaN,NaN,NaN,NaN,NaN,NaN,NaN,0,0,0,0,NaN,NaN,NaN,NaN,NaN,NaN,NaN,NaN,0,0,0,0,NaN,NaN,NaN,NaN,0,0,0,0,0,13,13,13,NaN,NaN,NaN,NaN,NaN,NaN,NaN,NaN,NaN,NaN,NaN,NaN,NaN,NaN,NaN,NaN,NaN,NaN,NaN,NaN,NaN,,NaN,NaN,NaN,NaN,NaN,NaN,NaN,NaN,NaN,NaN,NaN,,,NaN,NaN,NaN,NaN,452.519463900011,452.519463900011,452.519463900011,452.519463900011,452.519463900011,1,0.98124250001274,ScrollDown,정답,453.515031900024,453.515031900024,454.015040300088,454.529959300067,NaN,,NaN,NaN,NaN,,,NaN,,,NaN,NaN,NaN,,NaN,NaN,NaN,NaN,NaN,NaN,NaN,10,27,남자,yes,yes,yes,yes,no,2023-04-10_16h28.52.646,Main,2022.2.4,29.8712459722135
15,넌 무자비해,5,Orange,B,2.33333333333333,2.1,ScrollUp,ScrollDown,Orange.png,1,Negative,Congruent,,,NaN,,,NaN,NaN,NaN,NaN,NaN,NaN,NaN,NaN,NaN,NaN,NaN,NaN,0,0,0,0,NaN,NaN,NaN,NaN,NaN,NaN,NaN,NaN,0,0,0,0,NaN,NaN,NaN,NaN,0,0,0,0,0,14,14,14,NaN,NaN,NaN,NaN,NaN,NaN,NaN,NaN,NaN,NaN,NaN,NaN,NaN,NaN,NaN,NaN,NaN,NaN,NaN,NaN,NaN,,NaN,NaN,NaN,NaN,NaN,NaN,NaN,NaN,NaN,NaN,NaN,,,NaN,NaN,NaN,NaN,454.529959300067,454.529959300067,454.529959300067,454.529959300067,454.529959300067,1.95679012345679,0.938438799930736,ScrollUp,정답,455.481841099914,455.481841099914,455.981838500127,456.502651799936,NaN,,NaN,NaN,NaN,,,NaN,,,NaN,NaN,NaN,,NaN,NaN,NaN,NaN,NaN,NaN,NaN,10,27,남자,yes,yes,yes,yes,no,2023-04-10_16h28.52.646,Main,2022.2.4,29.8712459722135
16,나를 보내줘,6,Green,A,0,0,ScrollUp,ScrollDown,Green.png,1,NonTarget,NonTarget,,,NaN,,,NaN,NaN,NaN,NaN,NaN,NaN,NaN,NaN,NaN,NaN,NaN,NaN,0,0,0,0,NaN,NaN,NaN,NaN,NaN,NaN,NaN,NaN,0,0,0,0,NaN,NaN,NaN,NaN,0,0,0,0,0,15,15,15,NaN,NaN,NaN,NaN,NaN,NaN,NaN,NaN,NaN,NaN,NaN,NaN,NaN,NaN,NaN,NaN,NaN,NaN,NaN,NaN,NaN,,NaN,NaN,NaN,NaN,NaN,NaN,NaN,NaN,NaN,NaN,NaN,,,NaN,NaN,NaN,NaN,456.502651799936,456.502651799936,456.502651799936,456.502651799936,456.502651799936,1.89197530864198,1.34825230017304,ScrollUp,정답,457.865222200053,457.865222200053,458.365143900039,458.884584600106,NaN,,NaN,NaN,NaN,,,NaN,,,NaN,NaN,NaN,,NaN,NaN,NaN,NaN,NaN,NaN,NaN,10,27,남자,yes,yes,yes,yes,no,2023-04-10_16h28.52.646,Main,2022.2.4,29.8712459722135
17,넌 현실적이야,3,Orange,B,4.60869565217391,4.76666666666667,ScrollUp,ScrollDown,Orange.png,1,Neutral,Neutral,,,NaN,,,NaN,NaN,NaN,NaN,NaN,NaN,NaN,NaN,NaN,NaN,NaN,NaN,0,0,0,0,NaN,NaN,NaN,NaN,NaN,NaN,NaN,NaN,0,0,0,0,NaN,NaN,NaN,NaN,0,0,0,0,0,16,16,16,NaN,NaN,NaN,NaN,NaN,NaN,NaN,NaN,NaN,NaN,NaN,NaN,NaN,NaN,NaN,NaN,NaN,NaN,NaN,NaN,NaN,,NaN,NaN,NaN,NaN,NaN,NaN,NaN,NaN,NaN,NaN,NaN,,,NaN,NaN,NaN,NaN,458.884584600106,458.884584600106,458.884584600106,458.884584600106,458.884584600106,1.77314814814815,0.967350000049919,ScrollUp,정답,459.865146100055,459.865146100055,460.365021599922,460.873197300127,NaN,,NaN,NaN,NaN,,,NaN,,,NaN,NaN,NaN,,NaN,NaN,NaN,NaN,NaN,NaN,NaN,10,27,남자,yes,yes,yes,yes,no,2023-04-10_16h28.52.646,Main,2022.2.4,29.8712459722135
18,넌 의리있어,1,Orange,B,5.83333333333333,5.63333333333333,ScrollUp,ScrollDown,Orange.png,1,Positive,Incongruent,,,NaN,,,NaN,NaN,NaN,NaN,NaN,NaN,NaN,NaN,NaN,NaN,NaN,NaN,0,0,0,0,NaN,NaN,NaN,NaN,NaN,NaN,NaN,NaN,0,0,0,0,NaN,NaN,NaN,NaN,0,0,0,0,0,17,17,17,NaN,NaN,NaN,NaN,NaN,NaN,NaN,NaN,NaN,NaN,NaN,NaN,NaN,NaN,NaN,NaN,NaN,NaN,NaN,NaN,NaN,,NaN,NaN,NaN,NaN,NaN,NaN,NaN,NaN,NaN,NaN,NaN,,,NaN,NaN,NaN,NaN,460.873197300127,460.873197300127,460.873197300127,460.873197300127,460.873197300127,1.96913580246914,0.8360242000781,ScrollUp,정답,461.731832100078,461.731832100078,462.231952100061,462.744235299993,NaN,,NaN,NaN,NaN,,,NaN,,,NaN,NaN,NaN,,NaN,NaN,NaN,NaN,NaN,NaN,NaN,10,27,남자,yes,yes,yes,yes,no,2023-04-10_16h28.52.646,Main,2022.2.4,29.8712459722135
19,넌 신경과민이야,5,Green,A,2.54166666666667,2.16666666666667,ScrollDown,ScrollUp,Green.png,1,Negative,Incongruent,,,NaN,,,NaN,NaN,NaN,NaN,NaN,NaN,NaN,NaN,NaN,NaN,NaN,NaN,0,0,0,0,NaN,NaN,NaN,NaN,NaN,NaN,NaN,NaN,0,0,0,0,NaN,NaN,NaN,NaN,0,0,0,0,0,18,18,18,NaN,NaN,NaN,NaN,NaN,NaN,NaN,NaN,NaN,NaN,NaN,NaN,NaN,NaN,NaN,NaN,NaN,NaN,NaN,NaN,NaN,,NaN,NaN,NaN,NaN,NaN,NaN,NaN,NaN,NaN,NaN,NaN,,,NaN,NaN,NaN,NaN,462.744235299993,462.744235299993,462.744235299993,462.744235299993,462.744235299993,1.16049382716049,0.871289700036868,ScrollDown,정답,463.632134899963,463.632134899963,464.132163499948,464.634205800015,NaN,,NaN,NaN,NaN,,,NaN,,,NaN,NaN,NaN,,NaN,NaN,NaN,NaN,NaN,NaN,NaN,10,27,남자,yes,yes,yes,yes,no,2023-04-10_16h28.52.646,Main,2022.2.4,29.8712459722135
20,넌 편안해,1,Green,A,5.91666666666667,5.86666666666667,ScrollDown,ScrollUp,Green.png,1,Positive,Congruent,,,NaN,,,NaN,NaN,NaN,NaN,NaN,NaN,NaN,NaN,NaN,NaN,NaN,NaN,0,0,0,0,NaN,NaN,NaN,NaN,NaN,NaN,NaN,NaN,0,0,0,0,NaN,NaN,NaN,NaN,0,0,0,0,0,19,19,19,NaN,NaN,NaN,NaN,NaN,NaN,NaN,NaN,NaN,NaN,NaN,NaN,NaN,NaN,NaN,NaN,NaN,NaN,NaN,NaN,NaN,,NaN,NaN,NaN,NaN,NaN,NaN,NaN,NaN,NaN,NaN,NaN,,,NaN,NaN,NaN,NaN,464.634205800015,464.634205800015,464.634205800015,464.634205800015,464.634205800015,1.04475308641975,0.766463099978864,ScrollDown,정답,465.43184720003,465.43184720003,465.931928599952,466.465090800077,NaN,,NaN,NaN,NaN,,,NaN,,,NaN,NaN,NaN,,NaN,NaN,NaN,NaN,NaN,NaN,NaN,10,27,남자,yes,yes,yes,yes,no,2023-04-10_16h28.52.646,Main,2022.2.4,29.8712459722135
21,넌 품위있어,2,Orange,B,5.29166666666667,4.46666666666667,ScrollUp,ScrollDown,Orange.png,1,Positive,Incongruent,,,NaN,,,NaN,NaN,NaN,NaN,NaN,NaN,NaN,NaN,NaN,NaN,NaN,NaN,0,0,0,0,NaN,NaN,NaN,NaN,NaN,NaN,NaN,NaN,0,0,0,0,NaN,NaN,NaN,NaN,0,0,0,0,0,20,20,20,NaN,NaN,NaN,NaN,NaN,NaN,NaN,NaN,NaN,NaN,NaN,NaN,NaN,NaN,NaN,NaN,NaN,NaN,NaN,NaN,NaN,,NaN,NaN,NaN,NaN,NaN,NaN,NaN,NaN,NaN,NaN,NaN,,,NaN,NaN,NaN,NaN,466.465090800077,466.465090800077,466.465090800077,466.465090800077,466.465090800077,1.73765432098765,0.819246700033545,ScrollUp,정답,467.282161799958,467.282161799958,467.781852599932,468.289139200002,NaN,,NaN,NaN,NaN,,,NaN,,,NaN,NaN,NaN,,NaN,NaN,NaN,NaN,NaN,NaN,NaN,10,27,남자,yes,yes,yes,yes,no,2023-04-10_16h28.52.646,Main,2022.2.4,29.8712459722135
22,넌 빈틈없어,3,Green,A,4.83333333333333,3.96666666666667,ScrollDown,ScrollUp,Green.png,1,Neutral,Neutral,,,NaN,,,NaN,NaN,NaN,NaN,NaN,NaN,NaN,NaN,NaN,NaN,NaN,NaN,0,0,0,0,NaN,NaN,NaN,NaN,NaN,NaN,NaN,NaN,0,0,0,0,NaN,NaN,NaN,NaN,0,0,0,0,0,21,21,21,NaN,NaN,NaN,NaN,NaN,NaN,NaN,NaN,NaN,NaN,NaN,NaN,NaN,NaN,NaN,NaN,NaN,NaN,NaN,NaN,NaN,,NaN,NaN,NaN,NaN,NaN,NaN,NaN,NaN,NaN,NaN,NaN,,,NaN,NaN,NaN,NaN,468.289139200002,468.289139200002,468.289139200002,468.289139200002,468.289139200002,1.25617283950617,0.731723499950022,ScrollDown,정답,469.048328900011,469.048328900011,469.549054499948,470.059240200091,NaN,,NaN,NaN,NaN,,,NaN,,,NaN,NaN,NaN,,NaN,NaN,NaN,NaN,NaN,NaN,NaN,10,27,남자,yes,yes,yes,yes,no,2023-04-10_16h28.52.646,Main,2022.2.4,29.8712459722135
23,넌 상상력없어,4,Orange,B,2.83333333333333,3.13333333333333,ScrollUp,ScrollDown,Orange.png,1,Negative,Congruent,,,NaN,,,NaN,NaN,NaN,NaN,NaN,NaN,NaN,NaN,NaN,NaN,NaN,NaN,0,0,0,0,NaN,NaN,NaN,NaN,NaN,NaN,NaN,NaN,0,0,0,0,NaN,NaN,NaN,NaN,0,0,0,0,0,22,22,22,NaN,NaN,NaN,NaN,NaN,NaN,NaN,NaN,NaN,NaN,NaN,NaN,NaN,NaN,NaN,NaN,NaN,NaN,NaN,NaN,NaN,,NaN,NaN,NaN,NaN,NaN,NaN,NaN,NaN,NaN,NaN,NaN,,,NaN,NaN,NaN,NaN,470.059240200091,470.059240200091,470.059240200091,470.059240200091,470.059240200091,1.93672839506173,0.865957899950445,ScrollUp,정답,470.948535700096,470.948535700096,471.448659100104,471.967426399933,NaN,,NaN,NaN,NaN,,,NaN,,,NaN,NaN,NaN,,NaN,NaN,NaN,NaN,NaN,NaN,NaN,10,27,남자,yes,yes,yes,yes,no,2023-04-10_16h28.52.646,Main,2022.2.4,29.8712459722135
24,넌 지혜로워,2,Orange,B,6.33333333333333,4.63333333333333,ScrollUp,ScrollDown,Orange.png,1,Positive,Incongruent,,,NaN,,,NaN,NaN,NaN,NaN,NaN,NaN,NaN,NaN,NaN,NaN,NaN,NaN,0,0,0,0,NaN,NaN,NaN,NaN,NaN,NaN,NaN,NaN,0,0,0,0,NaN,NaN,NaN,NaN,0,0,0,0,0,23,23,23,NaN,NaN,NaN,NaN,NaN,NaN,NaN,NaN,NaN,NaN,NaN,NaN,NaN,NaN,NaN,NaN,NaN,NaN,NaN,NaN,NaN,,NaN,NaN,NaN,NaN,NaN,NaN,NaN,NaN,NaN,NaN,NaN,,,NaN,NaN,NaN,NaN,471.967426399933,471.967426399933,471.967426399933,471.967426399933,471.967426399933,1.92746913580247,0.803774300031364,ScrollUp,정답,472.781921100104,472.781921100104,473.281826399965,473.789726099931,NaN,,NaN,NaN,NaN,,,NaN,,,NaN,NaN,NaN,,NaN,NaN,NaN,NaN,NaN,NaN,NaN,10,27,남자,yes,yes,yes,yes,no,2023-04-10_16h28.52.646,Main,2022.2.4,29.8712459722135
25,넌 시끄러워,4,Green,A,2.83333333333333,3.03333333333333,ScrollDown,ScrollUp,Green.png,1,Negative,Incongruent,,,NaN,,,NaN,NaN,NaN,NaN,NaN,NaN,NaN,NaN,NaN,NaN,NaN,NaN,0,0,0,0,NaN,NaN,NaN,NaN,NaN,NaN,NaN,NaN,0,0,0,0,NaN,NaN,NaN,NaN,0,0,0,0,0,24,24,24,NaN,NaN,NaN,NaN,NaN,NaN,NaN,NaN,NaN,NaN,NaN,NaN,NaN,NaN,NaN,NaN,NaN,NaN,NaN,NaN,NaN,,NaN,NaN,NaN,NaN,NaN,NaN,NaN,NaN,NaN,NaN,NaN,,,NaN,NaN,NaN,NaN,473.789726099931,473.789726099931,473.789726099931,473.789726099931,473.789726099931,1.35185185185185,0.799947000108659,ScrollDown,정답,474.615693500033,474.615693500033,475.115590000059,475.633017000044,NaN,,NaN,NaN,NaN,,,NaN,,,NaN,NaN,NaN,,NaN,NaN,NaN,NaN,NaN,NaN,NaN,10,27,남자,yes,yes,yes,yes,no,2023-04-10_16h28.52.646,Main,2022.2.4,29.8712459722135
26,넌 만사태평이야,3,Orange,B,4,4.33333333333333,ScrollUp,ScrollDown,Orange.png,1,Neutral,Neutral,,,NaN,,,NaN,NaN,NaN,NaN,NaN,NaN,NaN,NaN,NaN,NaN,NaN,NaN,0,0,0,0,NaN,NaN,NaN,NaN,NaN,NaN,NaN,NaN,0,0,0,0,NaN,NaN,NaN,NaN,0,0,0,0,0,25,25,25,NaN,NaN,NaN,NaN,NaN,NaN,NaN,NaN,NaN,NaN,NaN,NaN,NaN,NaN,NaN,NaN,NaN,NaN,NaN,NaN,NaN,,NaN,NaN,NaN,NaN,NaN,NaN,NaN,NaN,NaN,NaN,NaN,,,NaN,NaN,NaN,NaN,475.633017000044,475.633017000044,475.633017000044,475.633017000044,475.633017000044,1.75925925925926,0.798757900018245,ScrollUp,정답,476.448711999925,476.448711999925,476.948368800106,477.478254500078,NaN,,NaN,NaN,NaN,,,NaN,,,NaN,NaN,NaN,,NaN,NaN,NaN,NaN,NaN,NaN,NaN,10,27,남자,yes,yes,yes,yes,no,2023-04-10_16h28.52.646,Main,2022.2.4,29.8712459722135
27,넌 붙임성있어,1,Green,A,5.70833333333333,5.63333333333333,ScrollDown,ScrollUp,Green.png,1,Positive,Congruent,,,NaN,,,NaN,NaN,NaN,NaN,NaN,NaN,NaN,NaN,NaN,NaN,NaN,NaN,0,0,0,0,NaN,NaN,NaN,NaN,NaN,NaN,NaN,NaN,0,0,0,0,NaN,NaN,NaN,NaN,0,0,0,0,0,26,26,26,NaN,NaN,NaN,NaN,NaN,NaN,NaN,NaN,NaN,NaN,NaN,NaN,NaN,NaN,NaN,NaN,NaN,NaN,NaN,NaN,NaN,,NaN,NaN,NaN,NaN,NaN,NaN,NaN,NaN,NaN,NaN,NaN,,,NaN,NaN,NaN,NaN,477.478254500078,477.478254500078,477.478254500078,477.478254500078,477.478254500078,1.37191358024691,0.781028100056574,ScrollDown,정답,478.265250100056,478.265250100056,478.765035599936,479.280893200077,NaN,,NaN,NaN,NaN,,,NaN,,,NaN,NaN,NaN,,NaN,NaN,NaN,NaN,NaN,NaN,NaN,10,27,남자,yes,yes,yes,yes,no,2023-04-10_16h28.52.646,Main,2022.2.4,29.8712459722135
28,넌 영리해,2,Green,A,6,4.03333333333333,ScrollDown,ScrollUp,Green.png,1,Positive,Congruent,,,NaN,,,NaN,NaN,NaN,NaN,NaN,NaN,NaN,NaN,NaN,NaN,NaN,NaN,0,0,0,0,NaN,NaN,NaN,NaN,NaN,NaN,NaN,NaN,0,0,0,0,NaN,NaN,NaN,NaN,0,0,0,0,0,27,27,27,NaN,NaN,NaN,NaN,NaN,NaN,NaN,NaN,NaN,NaN,NaN,NaN,NaN,NaN,NaN,NaN,NaN,NaN,NaN,NaN,NaN,,NaN,NaN,NaN,NaN,NaN,NaN,NaN,NaN,NaN,NaN,NaN,,,NaN,NaN,NaN,NaN,479.280893200077,479.280893200077,479.280893200077,479.280893200077,479.280893200077,1.05864197530864,0.764335700077936,ScrollDown,정답,480.065608700039,480.065608700039,480.565823100042,481.096138099907,NaN,,NaN,NaN,NaN,,,NaN,,,NaN,NaN,NaN,,NaN,NaN,NaN,NaN,NaN,NaN,NaN,10,27,남자,yes,yes,yes,yes,no,2023-04-10_16h28.52.646,Main,2022.2.4,29.8712459722135
29,넌 열심이야,1,Orange,B,6.04166666666667,5.83333333333333,ScrollUp,ScrollDown,Orange.png,1,Positive,Incongruent,,,NaN,,,NaN,NaN,NaN,NaN,NaN,NaN,NaN,NaN,NaN,NaN,NaN,NaN,0,0,0,0,NaN,NaN,NaN,NaN,NaN,NaN,NaN,NaN,0,0,0,0,NaN,NaN,NaN,NaN,0,0,0,0,0,28,28,28,NaN,NaN,NaN,NaN,NaN,NaN,NaN,NaN,NaN,NaN,NaN,NaN,NaN,NaN,NaN,NaN,NaN,NaN,NaN,NaN,NaN,,NaN,NaN,NaN,NaN,NaN,NaN,NaN,NaN,NaN,NaN,NaN,,,NaN,NaN,NaN,NaN,481.096138099907,481.096138099907,481.096138099907,481.096138099907,481.096138099907,1.89969135802469,0.813403599895537,ScrollUp,정답,481.915140399942,481.915140399942,482.415230199927,482.923163499916,NaN,,NaN,NaN,NaN,,,NaN,,,NaN,NaN,NaN,,NaN,NaN,NaN,NaN,NaN,NaN,NaN,10,27,남자,yes,yes,yes,yes,no,2023-04-10_16h28.52.646,Main,2022.2.4,29.8712459722135
30,넌 인기없어,4,Orange,B,3,3.3,ScrollUp,ScrollDown,Orange.png,1,Negative,Congruent,,,NaN,,,NaN,NaN,NaN,NaN,NaN,NaN,NaN,NaN,NaN,NaN,NaN,NaN,0,0,0,0,NaN,NaN,NaN,NaN,NaN,NaN,NaN,NaN,0,0,0,0,NaN,NaN,NaN,NaN,0,0,0,0,0,29,29,29,NaN,NaN,NaN,NaN,NaN,NaN,NaN,NaN,NaN,NaN,NaN,NaN,NaN,NaN,NaN,NaN,NaN,NaN,NaN,NaN,NaN,,NaN,NaN,NaN,NaN,NaN,NaN,NaN,NaN,NaN,NaN,NaN,,,NaN,NaN,NaN,NaN,482.923163499916,482.923163499916,482.923163499916,482.923163499916,482.923163499916,2,0.803499300032854,ScrollUp,정답,483.748719400028,483.748719400028,484.24853569991,484.758482800098,NaN,,NaN,NaN,NaN,,,NaN,,,NaN,NaN,NaN,,NaN,NaN,NaN,NaN,NaN,NaN,NaN,10,27,남자,yes,yes,yes,yes,no,2023-04-10_16h28.52.646,Main,2022.2.4,29.8712459722135
31,넌 익살스러워,3,Green,A,4.70833333333333,4.83333333333333,ScrollDown,ScrollUp,Green.png,1,Neutral,Neutral,,,NaN,,,NaN,NaN,NaN,NaN,NaN,NaN,NaN,NaN,NaN,NaN,NaN,NaN,0,0,0,0,NaN,NaN,NaN,NaN,NaN,NaN,NaN,NaN,0,0,0,0,NaN,NaN,NaN,NaN,0,0,0,0,0,30,30,30,NaN,NaN,NaN,NaN,NaN,NaN,NaN,NaN,NaN,NaN,NaN,NaN,NaN,NaN,NaN,NaN,NaN,NaN,NaN,NaN,NaN,,NaN,NaN,NaN,NaN,NaN,NaN,NaN,NaN,NaN,NaN,NaN,,,NaN,NaN,NaN,NaN,484.758482800098,484.758482800098,484.758482800098,484.758482800098,484.758482800098,1,0.83326380001381,ScrollDown,정답,485.615198400104,485.615198400104,486.115626299987,486.646390200127,NaN,,NaN,NaN,NaN,,,NaN,,,NaN,NaN,NaN,,NaN,NaN,NaN,NaN,NaN,NaN,NaN,10,27,남자,yes,yes,yes,yes,no,2023-04-10_16h28.52.646,Main,2022.2.4,29.8712459722135
32,넌 이기적이야,5,Orange,B,2.29166666666667,2.33333333333333,ScrollUp,ScrollDown,Orange.png,1,Negative,Congruent,,,NaN,,,NaN,NaN,NaN,NaN,NaN,NaN,NaN,NaN,NaN,NaN,NaN,NaN,0,0,0,0,NaN,NaN,NaN,NaN,NaN,NaN,NaN,NaN,0,0,0,0,NaN,NaN,NaN,NaN,0,0,0,0,0,31,31,31,NaN,NaN,NaN,NaN,NaN,NaN,NaN,NaN,NaN,NaN,NaN,NaN,NaN,NaN,NaN,NaN,NaN,NaN,NaN,NaN,NaN,,NaN,NaN,NaN,NaN,NaN,NaN,NaN,NaN,NaN,NaN,NaN,,,NaN,NaN,NaN,NaN,486.646390200127,486.646390200127,486.646390200127,486.646390200127,486.646390200127,1.7283950617284,0.712413599947467,ScrollUp,정답,487.365189000033,487.365189000033,487.865441899979,488.37373230001,NaN,,NaN,NaN,NaN,,,NaN,,,NaN,NaN,NaN,,NaN,NaN,NaN,NaN,NaN,NaN,NaN,10,27,남자,yes,yes,yes,yes,no,2023-04-10_16h28.52.646,Main,2022.2.4,29.8712459722135
33,나를 데려가줘,6,Orange,B,0,0,ScrollDown,ScrollUp,Orange.png,1,NonTarget,NonTarget,,,NaN,,,NaN,NaN,NaN,NaN,NaN,NaN,NaN,NaN,NaN,NaN,NaN,NaN,0,0,0,0,NaN,NaN,NaN,NaN,NaN,NaN,NaN,NaN,0,0,0,0,NaN,NaN,NaN,NaN,0,0,0,0,0,32,32,32,NaN,NaN,NaN,NaN,NaN,NaN,NaN,NaN,NaN,NaN,NaN,NaN,NaN,NaN,NaN,NaN,NaN,NaN,NaN,NaN,NaN,,NaN,NaN,NaN,NaN,NaN,NaN,NaN,NaN,NaN,NaN,NaN,,,NaN,NaN,NaN,NaN,488.37373230001,488.37373230001,488.37373230001,488.37373230001,488.37373230001,1.14197530864198,1.13098499993794,ScrollDown,정답,489.531726300018,489.531726300018,490.031736500096,490.541011400055,NaN,,NaN,NaN,NaN,,,NaN,,,NaN,NaN,NaN,,NaN,NaN,NaN,NaN,NaN,NaN,NaN,10,27,남자,yes,yes,yes,yes,no,2023-04-10_16h28.52.646,Main,2022.2.4,29.8712459722135
34,넌 기회주의자야,5,Green,A,2.875,2.13333333333333,ScrollDown,ScrollUp,Green.png,1,Negative,Incongruent,,,NaN,,,NaN,NaN,NaN,NaN,NaN,NaN,NaN,NaN,NaN,NaN,NaN,NaN,0,0,0,0,NaN,NaN,NaN,NaN,NaN,NaN,NaN,NaN,0,0,0,0,NaN,NaN,NaN,NaN,0,0,0,0,0,33,33,33,NaN,NaN,NaN,NaN,NaN,NaN,NaN,NaN,NaN,NaN,NaN,NaN,NaN,NaN,NaN,NaN,NaN,NaN,NaN,NaN,NaN,,NaN,NaN,NaN,NaN,NaN,NaN,NaN,NaN,NaN,NaN,NaN,,,NaN,NaN,NaN,NaN,490.541011400055,490.541011400055,490.541011400055,490.541011400055,490.541011400055,1.29783950617284,0.938700800063089,ScrollDown,정답,491.498950399924,491.498950399924,491.999012900051,492.499059800059,NaN,,NaN,NaN,NaN,,,NaN,,,NaN,NaN,NaN,,NaN,NaN,NaN,NaN,NaN,NaN,NaN,10,27,남자,yes,yes,yes,yes,no,2023-04-10_16h28.52.646,Main,2022.2.4,29.8712459722135
NaN,,NaN,,,NaN,NaN,,,,NaN,,,,,NaN,,,NaN,NaN,NaN,NaN,NaN,NaN,NaN,NaN,NaN,NaN,NaN,NaN,0,0,0,0,NaN,NaN,NaN,NaN,NaN,NaN,NaN,NaN,0,0,0,0,NaN,NaN,NaN,NaN,0,0,0,0,NaN,NaN,NaN,NaN,0,0,0,0,NaN,NaN,NaN,NaN,NaN,NaN,NaN,NaN,NaN,NaN,NaN,NaN,NaN,NaN,NaN,NaN,NaN,,NaN,NaN,NaN,NaN,NaN,NaN,NaN,NaN,NaN,NaN,NaN,,,NaN,NaN,NaN,NaN,NaN,NaN,NaN,NaN,NaN,NaN,NaN,,,NaN,NaN,NaN,NaN,2,,NaN,NaN,NaN,,,NaN,,,NaN,NaN,NaN,,NaN,NaN,NaN,NaN,NaN,NaN,NaN,10,27,남자,yes,yes,yes,yes,no,2023-04-10_16h28.52.646,Main,2022.2.4,29.8712459722135
NaN,,NaN,,,NaN,NaN,,,,NaN,,,,,NaN,,,NaN,NaN,NaN,NaN,NaN,NaN,NaN,NaN,NaN,NaN,NaN,NaN,0,0,0,0,NaN,NaN,NaN,NaN,NaN,NaN,NaN,NaN,0,0,0,0,NaN,NaN,NaN,NaN,0,0,0,0,NaN,NaN,NaN,NaN,NaN,NaN,NaN,NaN,NaN,NaN,NaN,NaN,NaN,NaN,NaN,NaN,NaN,NaN,NaN,NaN,NaN,NaN,NaN,NaN,NaN,,NaN,NaN,NaN,NaN,NaN,NaN,NaN,NaN,NaN,NaN,NaN,,,NaN,NaN,NaN,NaN,NaN,NaN,NaN,NaN,NaN,NaN,NaN,,,NaN,NaN,NaN,NaN,NaN,,NaN,NaN,NaN,,,NaN,,,NaN,NaN,NaN,,NaN,NaN,NaN,NaN,NaN,NaN,NaN,10,27,남자,yes,yes,yes,yes,no,2023-04-10_16h28.52.646,Main,2022.2.4,29.8712459722135
1,넌 미성숙해,4,Green,A,3,3.2,ScrollDown,ScrollUp,Green.png,2,Negative,Incongruent,,,NaN,,,NaN,NaN,NaN,NaN,NaN,NaN,NaN,NaN,NaN,NaN,NaN,NaN,0,0,0,0,NaN,NaN,NaN,NaN,NaN,NaN,NaN,NaN,0,0,0,0,NaN,NaN,NaN,NaN,1,0,1,0,0,0,0,0,NaN,NaN,NaN,NaN,NaN,NaN,NaN,NaN,NaN,NaN,NaN,NaN,NaN,NaN,NaN,NaN,NaN,NaN,NaN,NaN,NaN,,NaN,NaN,NaN,NaN,NaN,NaN,NaN,NaN,NaN,NaN,NaN,,,NaN,NaN,NaN,NaN,535.264718000079,535.264718000079,535.264718000079,535.264718000079,535.264718000079,1.03858024691358,0.982965999981388,ScrollDown,정답,536.282001600135,536.282001600135,536.78211749997,537.310828699963,NaN,,NaN,NaN,NaN,,,NaN,,,NaN,NaN,NaN,,NaN,NaN,NaN,NaN,NaN,NaN,NaN,10,27,남자,yes,yes,yes,yes,no,2023-04-10_16h28.52.646,Main,2022.2.4,29.8712459722135
2,넌 반사회적이야,5,Orange,B,2.41666666666667,2.03333333333333,ScrollUp,ScrollDown,Orange.png,2,Negative,Congruent,,,NaN,,,NaN,NaN,NaN,NaN,NaN,NaN,NaN,NaN,NaN,NaN,NaN,NaN,0,0,0,0,NaN,NaN,NaN,NaN,NaN,NaN,NaN,NaN,0,0,0,0,NaN,NaN,NaN,NaN,1,0,1,0,0,1,1,1,NaN,NaN,NaN,NaN,NaN,NaN,NaN,NaN,NaN,NaN,NaN,NaN,NaN,NaN,NaN,NaN,NaN,NaN,NaN,NaN,NaN,,NaN,NaN,NaN,NaN,NaN,NaN,NaN,NaN,NaN,NaN,NaN,,,NaN,NaN,NaN,NaN,537.310828699963,537.310828699963,537.310828699963,537.310828699963,537.310828699963,1.84259259259259,0.818268800154328,ScrollUp,정답,538.131878399989,538.131878399989,538.631991999922,539.155382300029,NaN,,NaN,NaN,NaN,,,NaN,,,NaN,NaN,NaN,,NaN,NaN,NaN,NaN,NaN,NaN,NaN,10,27,남자,yes,yes,yes,yes,no,2023-04-10_16h28.52.646,Main,2022.2.4,29.8712459722135
3,넌 유능해,2,Green,A,6.20833333333333,4.43333333333333,ScrollDown,ScrollUp,Green.png,2,Positive,Congruent,,,NaN,,,NaN,NaN,NaN,NaN,NaN,NaN,NaN,NaN,NaN,NaN,NaN,NaN,0,0,0,0,NaN,NaN,NaN,NaN,NaN,NaN,NaN,NaN,0,0,0,0,NaN,NaN,NaN,NaN,1,0,1,0,0,2,2,2,NaN,NaN,NaN,NaN,NaN,NaN,NaN,NaN,NaN,NaN,NaN,NaN,NaN,NaN,NaN,NaN,NaN,NaN,NaN,NaN,NaN,,NaN,NaN,NaN,NaN,NaN,NaN,NaN,NaN,NaN,NaN,NaN,,,NaN,NaN,NaN,NaN,539.155382300029,539.155382300029,539.155382300029,539.155382300029,539.155382300029,1.15586419753086,0.815081800101325,ScrollDown,정답,539.982346700039,539.982346700039,540.482317900052,540.990447400138,NaN,,NaN,NaN,NaN,,,NaN,,,NaN,NaN,NaN,,NaN,NaN,NaN,NaN,NaN,NaN,NaN,10,27,남자,yes,yes,yes,yes,no,2023-04-10_16h28.52.646,Main,2022.2.4,29.8712459722135
4,넌 능숙해,2,Orange,B,5.66666666666667,4.73333333333333,ScrollUp,ScrollDown,Orange.png,2,Positive,Incongruent,,,NaN,,,NaN,NaN,NaN,NaN,NaN,NaN,NaN,NaN,NaN,NaN,NaN,NaN,0,0,0,0,NaN,NaN,NaN,NaN,NaN,NaN,NaN,NaN,0,0,0,0,NaN,NaN,NaN,NaN,1,0,1,0,0,3,3,3,NaN,NaN,NaN,NaN,NaN,NaN,NaN,NaN,NaN,NaN,NaN,NaN,NaN,NaN,NaN,NaN,NaN,NaN,NaN,NaN,NaN,,NaN,NaN,NaN,NaN,NaN,NaN,NaN,NaN,NaN,NaN,NaN,,,NaN,NaN,NaN,NaN,540.990447400138,540.990447400138,540.990447400138,540.990447400138,540.990447400138,1.6141975308642,0.732092400081456,ScrollUp,정답,541.748547499999,541.748547499999,542.248458700022,542.748502700124,NaN,,NaN,NaN,NaN,,,NaN,,,NaN,NaN,NaN,,NaN,NaN,NaN,NaN,NaN,NaN,NaN,10,27,남자,yes,yes,yes,yes,no,2023-04-10_16h28.52.646,Main,2022.2.4,29.8712459722135
5,넌 진부해,4,Orange,B,2.45833333333333,3.16666666666667,ScrollUp,ScrollDown,Orange.png,2,Negative,Congruent,,,NaN,,,NaN,NaN,NaN,NaN,NaN,NaN,NaN,NaN,NaN,NaN,NaN,NaN,0,0,0,0,NaN,NaN,NaN,NaN,NaN,NaN,NaN,NaN,0,0,0,0,NaN,NaN,NaN,NaN,1,0,1,0,0,4,4,4,NaN,NaN,NaN,NaN,NaN,NaN,NaN,NaN,NaN,NaN,NaN,NaN,NaN,NaN,NaN,NaN,NaN,NaN,NaN,NaN,NaN,,NaN,NaN,NaN,NaN,NaN,NaN,NaN,NaN,NaN,NaN,NaN,,,NaN,NaN,NaN,NaN,542.748502700124,542.748502700124,542.748502700124,542.748502700124,542.748502700124,1.78858024691358,0.766622399911284,ScrollUp,정답,543.549033000134,543.549033000134,544.048599600093,544.57065759995,NaN,,NaN,NaN,NaN,,,NaN,,,NaN,NaN,NaN,,NaN,NaN,NaN,NaN,NaN,NaN,NaN,10,27,남자,yes,yes,yes,yes,no,2023-04-10_16h28.52.646,Main,2022.2.4,29.8712459722135
6,나를 보내줘,6,Green,A,0,0,ScrollUp,ScrollDown,Green.png,2,NonTarget,NonTarget,,,NaN,,,NaN,NaN,NaN,NaN,NaN,NaN,NaN,NaN,NaN,NaN,NaN,NaN,0,0,0,0,NaN,NaN,NaN,NaN,NaN,NaN,NaN,NaN,0,0,0,0,NaN,NaN,NaN,NaN,1,0,1,0,0,5,5,5,NaN,NaN,NaN,NaN,NaN,NaN,NaN,NaN,NaN,NaN,NaN,NaN,NaN,NaN,NaN,NaN,NaN,NaN,NaN,NaN,NaN,,NaN,NaN,NaN,NaN,NaN,NaN,NaN,NaN,NaN,NaN,NaN,,,NaN,NaN,NaN,NaN,544.57065759995,544.57065759995,544.57065759995,544.57065759995,544.57065759995,1.8070987654321,0.898403099970892,ScrollUp,정답,545.482037500013,545.482037500013,545.982169300085,546.491577400127,NaN,,NaN,NaN,NaN,,,NaN,,,NaN,NaN,NaN,,NaN,NaN,NaN,NaN,NaN,NaN,NaN,10,27,남자,yes,yes,yes,yes,no,2023-04-10_16h28.52.646,Main,2022.2.4,29.8712459722135
7,넌 엄격해,3,Green,A,4.16666666666667,4.1,ScrollDown,ScrollUp,Green.png,2,Neutral,Neutral,,,NaN,,,NaN,NaN,NaN,NaN,NaN,NaN,NaN,NaN,NaN,NaN,NaN,NaN,0,0,0,0,NaN,NaN,NaN,NaN,NaN,NaN,NaN,NaN,0,0,0,0,NaN,NaN,NaN,NaN,1,0,1,0,0,6,6,6,NaN,NaN,NaN,NaN,NaN,NaN,NaN,NaN,NaN,NaN,NaN,NaN,NaN,NaN,NaN,NaN,NaN,NaN,NaN,NaN,NaN,,NaN,NaN,NaN,NaN,NaN,NaN,NaN,NaN,NaN,NaN,NaN,,,NaN,NaN,NaN,NaN,546.491577400127,546.491577400127,546.491577400127,546.491577400127,546.491577400127,1.20987654320988,0.831077500013635,ScrollDown,정답,547.348999599926,547.348999599926,547.848700399976,548.353414300131,NaN,,NaN,NaN,NaN,,,NaN,,,NaN,NaN,NaN,,NaN,NaN,NaN,NaN,NaN,NaN,NaN,10,27,남자,yes,yes,yes,yes,no,2023-04-10_16h28.52.646,Main,2022.2.4,29.8712459722135
8,나를 보내줘,6,Green,A,0,0,ScrollUp,ScrollDown,Green.png,2,NonTarget,NonTarget,,,NaN,,,NaN,NaN,NaN,NaN,NaN,NaN,NaN,NaN,NaN,NaN,NaN,NaN,0,0,0,0,NaN,NaN,NaN,NaN,NaN,NaN,NaN,NaN,0,0,0,0,NaN,NaN,NaN,NaN,1,0,1,0,0,7,7,7,NaN,NaN,NaN,NaN,NaN,NaN,NaN,NaN,NaN,NaN,NaN,NaN,NaN,NaN,NaN,NaN,NaN,NaN,NaN,NaN,NaN,,NaN,NaN,NaN,NaN,NaN,NaN,NaN,NaN,NaN,NaN,NaN,,,NaN,NaN,NaN,NaN,548.353414300131,548.353414300131,548.353414300131,548.353414300131,548.353414300131,1.90586419753086,0.830512400018051,ScrollUp,정답,549.215666699922,549.215666699922,549.715668000048,550.2668459001,NaN,,NaN,NaN,NaN,,,NaN,,,NaN,NaN,NaN,,NaN,NaN,NaN,NaN,NaN,NaN,NaN,10,27,남자,yes,yes,yes,yes,no,2023-04-10_16h28.52.646,Main,2022.2.4,29.8712459722135
9,넌 대담해,3,Orange,B,4.875,4.86666666666667,ScrollUp,ScrollDown,Orange.png,2,Neutral,Neutral,,,NaN,,,NaN,NaN,NaN,NaN,NaN,NaN,NaN,NaN,NaN,NaN,NaN,NaN,0,0,0,0,NaN,NaN,NaN,NaN,NaN,NaN,NaN,NaN,0,0,0,0,NaN,NaN,NaN,NaN,1,0,1,0,0,8,8,8,NaN,NaN,NaN,NaN,NaN,NaN,NaN,NaN,NaN,NaN,NaN,NaN,NaN,NaN,NaN,NaN,NaN,NaN,NaN,NaN,NaN,,NaN,NaN,NaN,NaN,NaN,NaN,NaN,NaN,NaN,NaN,NaN,,,NaN,NaN,NaN,NaN,550.2668459001,550.2668459001,550.2668459001,550.2668459001,550.2668459001,1.51697530864198,0.928427800070494,NoResponse,무응답,551.182084599975,551.182084599975,551.68202139996,552.188030699966,NaN,,NaN,NaN,NaN,,,NaN,,,NaN,NaN,NaN,,NaN,NaN,NaN,NaN,NaN,NaN,NaN,10,27,남자,yes,yes,yes,yes,no,2023-04-10_16h28.52.646,Main,2022.2.4,29.8712459722135
10,넌 꾸준해,1,Green,A,5.91666666666667,5.8,ScrollDown,ScrollUp,Green.png,2,Positive,Congruent,,,NaN,,,NaN,NaN,NaN,NaN,NaN,NaN,NaN,NaN,NaN,NaN,NaN,NaN,0,0,0,0,NaN,NaN,NaN,NaN,NaN,NaN,NaN,NaN,0,0,0,0,NaN,NaN,NaN,NaN,1,0,1,0,0,9,9,9,NaN,NaN,NaN,NaN,NaN,NaN,NaN,NaN,NaN,NaN,NaN,NaN,NaN,NaN,NaN,NaN,NaN,NaN,NaN,NaN,NaN,,NaN,NaN,NaN,NaN,NaN,NaN,NaN,NaN,NaN,NaN,NaN,,,NaN,NaN,NaN,NaN,552.188030699966,552.188030699966,552.188030699966,552.188030699966,552.188030699966,1,0.972334300167859,ScrollDown,정답,553.18227310013,553.18227310013,553.681942099938,554.181918400107,NaN,,NaN,NaN,NaN,,,NaN,,,NaN,NaN,NaN,,NaN,NaN,NaN,NaN,NaN,NaN,NaN,10,27,남자,yes,yes,yes,yes,no,2023-04-10_16h28.52.646,Main,2022.2.4,29.8712459722135
11,나를 데려가줘,6,Orange,B,0,0,ScrollDown,ScrollUp,Orange.png,2,NonTarget,NonTarget,,,NaN,,,NaN,NaN,NaN,NaN,NaN,NaN,NaN,NaN,NaN,NaN,NaN,NaN,0,0,0,0,NaN,NaN,NaN,NaN,NaN,NaN,NaN,NaN,0,0,0,0,NaN,NaN,NaN,NaN,1,0,1,0,0,10,10,10,NaN,NaN,NaN,NaN,NaN,NaN,NaN,NaN,NaN,NaN,NaN,NaN,NaN,NaN,NaN,NaN,NaN,NaN,NaN,NaN,NaN,,NaN,NaN,NaN,NaN,NaN,NaN,NaN,NaN,NaN,NaN,NaN,,,NaN,NaN,NaN,NaN,554.181918400107,554.181918400107,554.181918400107,554.181918400107,554.181918400107,1,1.13309099990875,ScrollDown,정답,555.348445700016,555.348445700016,555.848576500081,556.368025399977,NaN,,NaN,NaN,NaN,,,NaN,,,NaN,NaN,NaN,,NaN,NaN,NaN,NaN,NaN,NaN,NaN,10,27,남자,yes,yes,yes,yes,no,2023-04-10_16h28.52.646,Main,2022.2.4,29.8712459722135
12,넌 독선적이야,5,Green,A,2.45833333333333,1.93333333333333,ScrollDown,ScrollUp,Green.png,2,Negative,Incongruent,,,NaN,,,NaN,NaN,NaN,NaN,NaN,NaN,NaN,NaN,NaN,NaN,NaN,NaN,0,0,0,0,NaN,NaN,NaN,NaN,NaN,NaN,NaN,NaN,0,0,0,0,NaN,NaN,NaN,NaN,1,0,1,0,0,11,11,11,NaN,NaN,NaN,NaN,NaN,NaN,NaN,NaN,NaN,NaN,NaN,NaN,NaN,NaN,NaN,NaN,NaN,NaN,NaN,NaN,NaN,,NaN,NaN,NaN,NaN,NaN,NaN,NaN,NaN,NaN,NaN,NaN,,,NaN,NaN,NaN,NaN,556.368025399977,556.368025399977,556.368025399977,556.368025399977,556.368025399977,1,1.03676389995962,ScrollDown,정답,557.415755799972,557.415755799972,557.915556200081,558.421565500088,NaN,,NaN,NaN,NaN,,,NaN,,,NaN,NaN,NaN,,NaN,NaN,NaN,NaN,NaN,NaN,NaN,10,27,남자,yes,yes,yes,yes,no,2023-04-10_16h28.52.646,Main,2022.2.4,29.8712459722135
13,나를 보내줘,6,Green,A,0,0,ScrollUp,ScrollDown,Green.png,2,NonTarget,NonTarget,,,NaN,,,NaN,NaN,NaN,NaN,NaN,NaN,NaN,NaN,NaN,NaN,NaN,NaN,0,0,0,0,NaN,NaN,NaN,NaN,NaN,NaN,NaN,NaN,0,0,0,0,NaN,NaN,NaN,NaN,1,0,1,0,0,12,12,12,NaN,NaN,NaN,NaN,NaN,NaN,NaN,NaN,NaN,NaN,NaN,NaN,NaN,NaN,NaN,NaN,NaN,NaN,NaN,NaN,NaN,,NaN,NaN,NaN,NaN,NaN,NaN,NaN,NaN,NaN,NaN,NaN,,,NaN,NaN,NaN,NaN,558.421565500088,558.421565500088,558.421565500088,558.421565500088,558.421565500088,2,0.903497999999672,ScrollUp,정답,559.349051800091,559.349051800091,559.848764800001,560.348938500043,NaN,,NaN,NaN,NaN,,,NaN,,,NaN,NaN,NaN,,NaN,NaN,NaN,NaN,NaN,NaN,NaN,10,27,남자,yes,yes,yes,yes,no,2023-04-10_16h28.52.646,Main,2022.2.4,29.8712459722135
14,넌 책임감있어,1,Orange,B,6.34782608695652,6,ScrollUp,ScrollDown,Orange.png,2,Positive,Incongruent,,,NaN,,,NaN,NaN,NaN,NaN,NaN,NaN,NaN,NaN,NaN,NaN,NaN,NaN,0,0,0,0,NaN,NaN,NaN,NaN,NaN,NaN,NaN,NaN,0,0,0,0,NaN,NaN,NaN,NaN,1,0,1,0,0,13,13,13,NaN,NaN,NaN,NaN,NaN,NaN,NaN,NaN,NaN,NaN,NaN,NaN,NaN,NaN,NaN,NaN,NaN,NaN,NaN,NaN,NaN,,NaN,NaN,NaN,NaN,NaN,NaN,NaN,NaN,NaN,NaN,NaN,,,NaN,NaN,NaN,NaN,560.348938500043,560.348938500043,560.348938500043,560.348938500043,560.348938500043,2,1.00653919996694,ScrollUp,정답,561.382462500129,561.382462500129,561.882100299932,562.388876700075,NaN,,NaN,NaN,NaN,,,NaN,,,NaN,NaN,NaN,,NaN,NaN,NaN,NaN,NaN,NaN,NaN,10,27,남자,yes,yes,yes,yes,no,2023-04-10_16h28.52.646,Main,2022.2.4,29.8712459722135
15,넌 문학적이야,3,Green,A,4.70833333333333,4.33333333333333,ScrollDown,ScrollUp,Green.png,2,Neutral,Neutral,,,NaN,,,NaN,NaN,NaN,NaN,NaN,NaN,NaN,NaN,NaN,NaN,NaN,NaN,0,0,0,0,NaN,NaN,NaN,NaN,NaN,NaN,NaN,NaN,0,0,0,0,NaN,NaN,NaN,NaN,1,0,1,0,0,14,14,14,NaN,NaN,NaN,NaN,NaN,NaN,NaN,NaN,NaN,NaN,NaN,NaN,NaN,NaN,NaN,NaN,NaN,NaN,NaN,NaN,NaN,,NaN,NaN,NaN,NaN,NaN,NaN,NaN,NaN,NaN,NaN,NaN,,,NaN,NaN,NaN,NaN,562.388876700075,562.388876700075,562.388876700075,562.388876700075,562.388876700075,1.09567901234568,0.899651800049469,ScrollDown,정답,563.315659600077,563.315659600077,563.815777099924,564.324036699953,NaN,,NaN,NaN,NaN,,,NaN,,,NaN,NaN,NaN,,NaN,NaN,NaN,NaN,NaN,NaN,NaN,10,27,남자,yes,yes,yes,yes,no,2023-04-10_16h28.52.646,Main,2022.2.4,29.8712459722135
16,넌 재미있어,1,Orange,B,5.875,5.7,ScrollUp,ScrollDown,Orange.png,2,Positive,Incongruent,,,NaN,,,NaN,NaN,NaN,NaN,NaN,NaN,NaN,NaN,NaN,NaN,NaN,NaN,0,0,0,0,NaN,NaN,NaN,NaN,NaN,NaN,NaN,NaN,0,0,0,0,NaN,NaN,NaN,NaN,1,0,1,0,0,15,15,15,NaN,NaN,NaN,NaN,NaN,NaN,NaN,NaN,NaN,NaN,NaN,NaN,NaN,NaN,NaN,NaN,NaN,NaN,NaN,NaN,NaN,,NaN,NaN,NaN,NaN,NaN,NaN,NaN,NaN,NaN,NaN,NaN,,,NaN,NaN,NaN,NaN,564.324036699953,564.324036699953,564.324036699953,564.324036699953,564.324036699953,1.90586419753086,0.833217000123113,ScrollUp,정답,565.181927300058,565.181927300058,565.682173199952,566.193830700126,NaN,,NaN,NaN,NaN,,,NaN,,,NaN,NaN,NaN,,NaN,NaN,NaN,NaN,NaN,NaN,NaN,10,27,남자,yes,yes,yes,yes,no,2023-04-10_16h28.52.646,Main,2022.2.4,29.8712459722135
17,나를 데려가줘,6,Orange,B,0,0,ScrollDown,ScrollUp,Orange.png,2,NonTarget,NonTarget,,,NaN,,,NaN,NaN,NaN,NaN,NaN,NaN,NaN,NaN,NaN,NaN,NaN,NaN,0,0,0,0,NaN,NaN,NaN,NaN,NaN,NaN,NaN,NaN,0,0,0,0,NaN,NaN,NaN,NaN,1,0,1,0,0,16,16,16,NaN,NaN,NaN,NaN,NaN,NaN,NaN,NaN,NaN,NaN,NaN,NaN,NaN,NaN,NaN,NaN,NaN,NaN,NaN,NaN,NaN,,NaN,NaN,NaN,NaN,NaN,NaN,NaN,NaN,NaN,NaN,NaN,,,NaN,NaN,NaN,NaN,566.193830700126,566.193830700126,566.193830700126,566.193830700126,566.193830700126,1,0.902408399851993,ScrollDown,정답,567.115289499983,567.115289499983,567.615568800131,568.127510499908,NaN,,NaN,NaN,NaN,,,NaN,,,NaN,NaN,NaN,,NaN,NaN,NaN,NaN,NaN,NaN,NaN,10,27,남자,yes,yes,yes,yes,no,2023-04-10_16h28.52.646,Main,2022.2.4,29.8712459722135
18,넌 협력적이야,1,Green,A,5.625,5.63333333333333,ScrollDown,ScrollUp,Green.png,2,Positive,Congruent,,,NaN,,,NaN,NaN,NaN,NaN,NaN,NaN,NaN,NaN,NaN,NaN,NaN,NaN,0,0,0,0,NaN,NaN,NaN,NaN,NaN,NaN,NaN,NaN,0,0,0,0,NaN,NaN,NaN,NaN,1,0,1,0,0,17,17,17,NaN,NaN,NaN,NaN,NaN,NaN,NaN,NaN,NaN,NaN,NaN,NaN,NaN,NaN,NaN,NaN,NaN,NaN,NaN,NaN,NaN,,NaN,NaN,NaN,NaN,NaN,NaN,NaN,NaN,NaN,NaN,NaN,,,NaN,NaN,NaN,NaN,568.127510499908,568.127510499908,568.127510499908,568.127510499908,568.127510499908,1.1466049382716,0.871077900053933,ScrollDown,정답,569.015593599994,569.015593599994,569.515543099958,570.025518700015,NaN,,NaN,NaN,NaN,,,NaN,,,NaN,NaN,NaN,,NaN,NaN,NaN,NaN,NaN,NaN,NaN,10,27,남자,yes,yes,yes,yes,no,2023-04-10_16h28.52.646,Main,2022.2.4,29.8712459722135
19,넌 평범해,3,Orange,B,4.33333333333333,4.23333333333333,ScrollUp,ScrollDown,Orange.png,2,Neutral,Neutral,,,NaN,,,NaN,NaN,NaN,NaN,NaN,NaN,NaN,NaN,NaN,NaN,NaN,NaN,0,0,0,0,NaN,NaN,NaN,NaN,NaN,NaN,NaN,NaN,0,0,0,0,NaN,NaN,NaN,NaN,1,0,1,0,0,18,18,18,NaN,NaN,NaN,NaN,NaN,NaN,NaN,NaN,NaN,NaN,NaN,NaN,NaN,NaN,NaN,NaN,NaN,NaN,NaN,NaN,NaN,,NaN,NaN,NaN,NaN,NaN,NaN,NaN,NaN,NaN,NaN,NaN,,,NaN,NaN,NaN,NaN,570.025518700015,570.025518700015,570.025518700015,570.025518700015,570.025518700015,1.70679012345679,0.865382299991325,ScrollUp,정답,570.915291900048,570.915291900048,571.414922700031,571.943641999969,NaN,,NaN,NaN,NaN,,,NaN,,,NaN,NaN,NaN,,NaN,NaN,NaN,NaN,NaN,NaN,NaN,10,27,남자,yes,yes,yes,yes,no,2023-04-10_16h28.52.646,Main,2022.2.4,29.8712459722135
20,넌 오만해,5,Green,A,2.33333333333333,2,ScrollDown,ScrollUp,Green.png,2,Negative,Incongruent,,,NaN,,,NaN,NaN,NaN,NaN,NaN,NaN,NaN,NaN,NaN,NaN,NaN,NaN,0,0,0,0,NaN,NaN,NaN,NaN,NaN,NaN,NaN,NaN,0,0,0,0,NaN,NaN,NaN,NaN,1,0,1,0,0,19,19,19,NaN,NaN,NaN,NaN,NaN,NaN,NaN,NaN,NaN,NaN,NaN,NaN,NaN,NaN,NaN,NaN,NaN,NaN,NaN,NaN,NaN,,NaN,NaN,NaN,NaN,NaN,NaN,NaN,NaN,NaN,NaN,NaN,,,NaN,NaN,NaN,NaN,571.943641999969,571.943641999969,571.943641999969,571.943641999969,571.943641999969,1.09876543209877,0.880025200080127,ScrollDown,정답,572.831970399944,572.831970399944,573.331965999911,573.842770399991,NaN,,NaN,NaN,NaN,,,NaN,,,NaN,NaN,NaN,,NaN,NaN,NaN,NaN,NaN,NaN,NaN,10,27,남자,yes,yes,yes,yes,no,2023-04-10_16h28.52.646,Main,2022.2.4,29.8712459722135
21,넌 운이없어,4,Orange,B,3,3.46666666666667,ScrollUp,ScrollDown,Orange.png,2,Negative,Congruent,,,NaN,,,NaN,NaN,NaN,NaN,NaN,NaN,NaN,NaN,NaN,NaN,NaN,NaN,0,0,0,0,NaN,NaN,NaN,NaN,NaN,NaN,NaN,NaN,0,0,0,0,NaN,NaN,NaN,NaN,1,0,1,0,0,20,20,20,NaN,NaN,NaN,NaN,NaN,NaN,NaN,NaN,NaN,NaN,NaN,NaN,NaN,NaN,NaN,NaN,NaN,NaN,NaN,NaN,NaN,,NaN,NaN,NaN,NaN,NaN,NaN,NaN,NaN,NaN,NaN,NaN,,,NaN,NaN,NaN,NaN,573.842770399991,573.842770399991,573.842770399991,573.842770399991,573.842770399991,1.78858024691358,0.765384099911898,ScrollUp,정답,574.632442099974,574.632442099974,575.131882300135,575.649636700051,NaN,,NaN,NaN,NaN,,,NaN,,,NaN,NaN,NaN,,NaN,NaN,NaN,NaN,NaN,NaN,NaN,10,27,남자,yes,yes,yes,yes,no,2023-04-10_16h28.52.646,Main,2022.2.4,29.8712459722135
22,넌 창조적이야,2,Orange,B,6.125,4.63333333333333,ScrollUp,ScrollDown,Orange.png,2,Positive,Incongruent,,,NaN,,,NaN,NaN,NaN,NaN,NaN,NaN,NaN,NaN,NaN,NaN,NaN,NaN,0,0,0,0,NaN,NaN,NaN,NaN,NaN,NaN,NaN,NaN,0,0,0,0,NaN,NaN,NaN,NaN,1,0,1,0,0,21,21,21,NaN,NaN,NaN,NaN,NaN,NaN,NaN,NaN,NaN,NaN,NaN,NaN,NaN,NaN,NaN,NaN,NaN,NaN,NaN,NaN,NaN,,NaN,NaN,NaN,NaN,NaN,NaN,NaN,NaN,NaN,NaN,NaN,,,NaN,NaN,NaN,NaN,575.649636700051,575.649636700051,575.649636700051,575.649636700051,575.649636700051,1.76234567901235,0.863724100170657,ScrollUp,정답,576.532077000011,576.532077000011,577.031590000028,577.531562299933,NaN,,NaN,NaN,NaN,,,NaN,,,NaN,NaN,NaN,,NaN,NaN,NaN,NaN,NaN,NaN,NaN,10,27,남자,yes,yes,yes,yes,no,2023-04-10_16h28.52.646,Main,2022.2.4,29.8712459722135
23,나를 보내줘,6,Green,A,0,0,ScrollUp,ScrollDown,Green.png,2,NonTarget,NonTarget,,,NaN,,,NaN,NaN,NaN,NaN,NaN,NaN,NaN,NaN,NaN,NaN,NaN,NaN,0,0,0,0,NaN,NaN,NaN,NaN,NaN,NaN,NaN,NaN,0,0,0,0,NaN,NaN,NaN,NaN,1,0,1,0,0,22,22,22,NaN,NaN,NaN,NaN,NaN,NaN,NaN,NaN,NaN,NaN,NaN,NaN,NaN,NaN,NaN,NaN,NaN,NaN,NaN,NaN,NaN,,NaN,NaN,NaN,NaN,NaN,NaN,NaN,NaN,NaN,NaN,NaN,,,NaN,NaN,NaN,NaN,577.531562299933,577.531562299933,577.531562299933,577.531562299933,577.531562299933,1.82253086419753,0.874014399945736,ScrollUp,정답,578.431942699943,578.431942699943,578.931797700003,579.432335499907,NaN,,NaN,NaN,NaN,,,NaN,,,NaN,NaN,NaN,,NaN,NaN,NaN,NaN,NaN,NaN,NaN,10,27,남자,yes,yes,yes,yes,no,2023-04-10_16h28.52.646,Main,2022.2.4,29.8712459722135
24,넌 통찰력있어,2,Green,A,6.5,4.8,ScrollDown,ScrollUp,Green.png,2,Positive,Congruent,,,NaN,,,NaN,NaN,NaN,NaN,NaN,NaN,NaN,NaN,NaN,NaN,NaN,NaN,0,0,0,0,NaN,NaN,NaN,NaN,NaN,NaN,NaN,NaN,0,0,0,0,NaN,NaN,NaN,NaN,1,0,1,0,0,23,23,23,NaN,NaN,NaN,NaN,NaN,NaN,NaN,NaN,NaN,NaN,NaN,NaN,NaN,NaN,NaN,NaN,NaN,NaN,NaN,NaN,NaN,,NaN,NaN,NaN,NaN,NaN,NaN,NaN,NaN,NaN,NaN,NaN,,,NaN,NaN,NaN,NaN,579.432335499907,579.432335499907,579.432335499907,579.432335499907,579.432335499907,1,0.932829899946228,ScrollDown,정답,580.398904300062,580.398904300062,580.899155399995,581.414502999978,NaN,,NaN,NaN,NaN,,,NaN,,,NaN,NaN,NaN,,NaN,NaN,NaN,NaN,NaN,NaN,NaN,10,27,남자,yes,yes,yes,yes,no,2023-04-10_16h28.52.646,Main,2022.2.4,29.8712459722135
25,넌 경솔해,5,Orange,B,2.45833333333333,2.26666666666667,ScrollUp,ScrollDown,Orange.png,2,Negative,Congruent,,,NaN,,,NaN,NaN,NaN,NaN,NaN,NaN,NaN,NaN,NaN,NaN,NaN,NaN,0,0,0,0,NaN,NaN,NaN,NaN,NaN,NaN,NaN,NaN,0,0,0,0,NaN,NaN,NaN,NaN,1,0,1,0,0,24,24,24,NaN,NaN,NaN,NaN,NaN,NaN,NaN,NaN,NaN,NaN,NaN,NaN,NaN,NaN,NaN,NaN,NaN,NaN,NaN,NaN,NaN,,NaN,NaN,NaN,NaN,NaN,NaN,NaN,NaN,NaN,NaN,NaN,,,NaN,NaN,NaN,NaN,581.414502999978,581.414502999978,581.414502999978,581.414502999978,581.414502999978,1.75154320987654,0.765294700162485,ScrollUp,정답,582.198592500063,582.198592500063,582.698442500085,583.202657799935,NaN,,NaN,NaN,NaN,,,NaN,,,NaN,NaN,NaN,,NaN,NaN,NaN,NaN,NaN,NaN,NaN,10,27,남자,yes,yes,yes,yes,no,2023-04-10_16h28.52.646,Main,2022.2.4,29.8712459722135
26,넌 초조해,4,Green,A,2.91666666666667,3.13333333333333,ScrollDown,ScrollUp,Green.png,2,Negative,Incongruent,,,NaN,,,NaN,NaN,NaN,NaN,NaN,NaN,NaN,NaN,NaN,NaN,NaN,NaN,0,0,0,0,NaN,NaN,NaN,NaN,NaN,NaN,NaN,NaN,0,0,0,0,NaN,NaN,NaN,NaN,1,0,1,0,0,25,25,25,NaN,NaN,NaN,NaN,NaN,NaN,NaN,NaN,NaN,NaN,NaN,NaN,NaN,NaN,NaN,NaN,NaN,NaN,NaN,NaN,NaN,,NaN,NaN,NaN,NaN,NaN,NaN,NaN,NaN,NaN,NaN,NaN,,,NaN,NaN,NaN,NaN,583.202657799935,583.202657799935,583.202657799935,583.202657799935,583.202657799935,1.23148148148148,0.766068799886853,ScrollDown,정답,583.99860400008,583.99860400008,584.498620599974,585.031422500033,NaN,,NaN,NaN,NaN,,,NaN,,,NaN,NaN,NaN,,NaN,NaN,NaN,NaN,NaN,NaN,NaN,10,27,남자,yes,yes,yes,yes,no,2023-04-10_16h28.52.646,Main,2022.2.4,29.8712459722135
27,넌 무관심해,4,Orange,B,2.83333333333333,2.9,ScrollUp,ScrollDown,Orange.png,2,Negative,Congruent,,,NaN,,,NaN,NaN,NaN,NaN,NaN,NaN,NaN,NaN,NaN,NaN,NaN,NaN,0,0,0,0,NaN,NaN,NaN,NaN,NaN,NaN,NaN,NaN,0,0,0,0,NaN,NaN,NaN,NaN,1,0,1,0,0,26,26,26,NaN,NaN,NaN,NaN,NaN,NaN,NaN,NaN,NaN,NaN,NaN,NaN,NaN,NaN,NaN,NaN,NaN,NaN,NaN,NaN,NaN,,NaN,NaN,NaN,NaN,NaN,NaN,NaN,NaN,NaN,NaN,NaN,,,NaN,NaN,NaN,NaN,585.031422500033,585.031422500033,585.031422500033,585.031422500033,585.031422500033,1.9429012345679,0.818699500057846,ScrollUp,정답,585.849047899945,585.849047899945,586.349022499984,586.851536599919,NaN,,NaN,NaN,NaN,,,NaN,,,NaN,NaN,NaN,,NaN,NaN,NaN,NaN,NaN,NaN,NaN,10,27,남자,yes,yes,yes,yes,no,2023-04-10_16h28.52.646,Main,2022.2.4,29.8712459722135
28,넌 감성적이야,3,Orange,B,4.125,4.16666666666667,ScrollUp,ScrollDown,Orange.png,2,Neutral,Neutral,,,NaN,,,NaN,NaN,NaN,NaN,NaN,NaN,NaN,NaN,NaN,NaN,NaN,NaN,0,0,0,0,NaN,NaN,NaN,NaN,NaN,NaN,NaN,NaN,0,0,0,0,NaN,NaN,NaN,NaN,1,0,1,0,0,27,27,27,NaN,NaN,NaN,NaN,NaN,NaN,NaN,NaN,NaN,NaN,NaN,NaN,NaN,NaN,NaN,NaN,NaN,NaN,NaN,NaN,NaN,,NaN,NaN,NaN,NaN,NaN,NaN,NaN,NaN,NaN,NaN,NaN,,,NaN,NaN,NaN,NaN,586.851536599919,586.851536599919,586.851536599919,586.851536599919,586.851536599919,1.84104938271605,0.799088099971414,ScrollUp,정답,587.681788499933,587.681788499933,588.181963100098,588.685397299938,NaN,,NaN,NaN,NaN,,,NaN,,,NaN,NaN,NaN,,NaN,NaN,NaN,NaN,NaN,NaN,NaN,10,27,남자,yes,yes,yes,yes,no,2023-04-10_16h28.52.646,Main,2022.2.4,29.8712459722135
29,넌 배려심있어,1,Green,A,6.08333333333333,5.5,ScrollDown,ScrollUp,Green.png,2,Positive,Congruent,,,NaN,,,NaN,NaN,NaN,NaN,NaN,NaN,NaN,NaN,NaN,NaN,NaN,NaN,0,0,0,0,NaN,NaN,NaN,NaN,NaN,NaN,NaN,NaN,0,0,0,0,NaN,NaN,NaN,NaN,1,0,1,0,0,28,28,28,NaN,NaN,NaN,NaN,NaN,NaN,NaN,NaN,NaN,NaN,NaN,NaN,NaN,NaN,NaN,NaN,NaN,NaN,NaN,NaN,NaN,,NaN,NaN,NaN,NaN,NaN,NaN,NaN,NaN,NaN,NaN,NaN,,,NaN,NaN,NaN,NaN,588.685397299938,588.685397299938,588.685397299938,588.685397299938,588.685397299938,1.02932098765432,0.69942620000802,ScrollDown,정답,589.41516380012,589.41516380012,589.915288400138,590.416563600069,NaN,,NaN,NaN,NaN,,,NaN,,,NaN,NaN,NaN,,NaN,NaN,NaN,NaN,NaN,NaN,NaN,10,27,남자,yes,yes,yes,yes,no,2023-04-10_16h28.52.646,Main,2022.2.4,29.8712459722135
30,넌 숨김없어,3,Green,A,4.5,4.93333333333333,ScrollDown,ScrollUp,Green.png,2,Neutral,Neutral,,,NaN,,,NaN,NaN,NaN,NaN,NaN,NaN,NaN,NaN,NaN,NaN,NaN,NaN,0,0,0,0,NaN,NaN,NaN,NaN,NaN,NaN,NaN,NaN,0,0,0,0,NaN,NaN,NaN,NaN,1,0,1,0,0,29,29,29,NaN,NaN,NaN,NaN,NaN,NaN,NaN,NaN,NaN,NaN,NaN,NaN,NaN,NaN,NaN,NaN,NaN,NaN,NaN,NaN,NaN,,NaN,NaN,NaN,NaN,NaN,NaN,NaN,NaN,NaN,NaN,NaN,,,NaN,NaN,NaN,NaN,590.416563600069,590.416563600069,590.416563600069,590.416563600069,590.416563600069,1.04938271604938,0.733789700083435,ScrollDown,정답,591.182357399957,591.182357399957,591.682527499972,592.19303490012,NaN,,NaN,NaN,NaN,,,NaN,,,NaN,NaN,NaN,,NaN,NaN,NaN,NaN,NaN,NaN,NaN,10,27,남자,yes,yes,yes,yes,no,2023-04-10_16h28.52.646,Main,2022.2.4,29.8712459722135
31,넌 훌륭해,2,Orange,B,5.91666666666667,4.03333333333333,ScrollUp,ScrollDown,Orange.png,2,Positive,Incongruent,,,NaN,,,NaN,NaN,NaN,NaN,NaN,NaN,NaN,NaN,NaN,NaN,NaN,NaN,0,0,0,0,NaN,NaN,NaN,NaN,NaN,NaN,NaN,NaN,0,0,0,0,NaN,NaN,NaN,NaN,1,0,1,0,0,30,30,30,NaN,NaN,NaN,NaN,NaN,NaN,NaN,NaN,NaN,NaN,NaN,NaN,NaN,NaN,NaN,NaN,NaN,NaN,NaN,NaN,NaN,,NaN,NaN,NaN,NaN,NaN,NaN,NaN,NaN,NaN,NaN,NaN,,,NaN,NaN,NaN,NaN,592.19303490012,592.19303490012,592.19303490012,592.19303490012,592.19303490012,1.80864197530864,0.666397799970582,ScrollUp,정답,592.881958600134,592.881958600134,593.381922699977,593.88784380001,NaN,,NaN,NaN,NaN,,,NaN,,,NaN,NaN,NaN,,NaN,NaN,NaN,NaN,NaN,NaN,NaN,10,27,남자,yes,yes,yes,yes,no,2023-04-10_16h28.52.646,Main,2022.2.4,29.8712459722135
32,넌 슬기로워,2,Green,A,6.16666666666667,4.1,ScrollDown,ScrollUp,Green.png,2,Positive,Congruent,,,NaN,,,NaN,NaN,NaN,NaN,NaN,NaN,NaN,NaN,NaN,NaN,NaN,NaN,0,0,0,0,NaN,NaN,NaN,NaN,NaN,NaN,NaN,NaN,0,0,0,0,NaN,NaN,NaN,NaN,1,0,1,0,0,31,31,31,NaN,NaN,NaN,NaN,NaN,NaN,NaN,NaN,NaN,NaN,NaN,NaN,NaN,NaN,NaN,NaN,NaN,NaN,NaN,NaN,NaN,,NaN,NaN,NaN,NaN,NaN,NaN,NaN,NaN,NaN,NaN,NaN,,,NaN,NaN,NaN,NaN,593.88784380001,593.88784380001,593.88784380001,593.88784380001,593.88784380001,1.1141975308642,0.699346299981698,ScrollDown,정답,594.615680400049,594.615680400049,595.115664799931,595.61585130007,NaN,,NaN,NaN,NaN,,,NaN,,,NaN,NaN,NaN,,NaN,NaN,NaN,NaN,NaN,NaN,NaN,10,27,남자,yes,yes,yes,yes,no,2023-04-10_16h28.52.646,Main,2022.2.4,29.8712459722135
33,넌 냉혹해,5,Green,A,2.58333333333333,2.1,ScrollDown,ScrollUp,Green.png,2,Negative,Incongruent,,,NaN,,,NaN,NaN,NaN,NaN,NaN,NaN,NaN,NaN,NaN,NaN,NaN,NaN,0,0,0,0,NaN,NaN,NaN,NaN,NaN,NaN,NaN,NaN,0,0,0,0,NaN,NaN,NaN,NaN,1,0,1,0,0,32,32,32,NaN,NaN,NaN,NaN,NaN,NaN,NaN,NaN,NaN,NaN,NaN,NaN,NaN,NaN,NaN,NaN,NaN,NaN,NaN,NaN,NaN,,NaN,NaN,NaN,NaN,NaN,NaN,NaN,NaN,NaN,NaN,NaN,,,NaN,NaN,NaN,NaN,595.61585130007,595.61585130007,595.61585130007,595.61585130007,595.61585130007,1.20216049382716,0.737820100039244,ScrollDown,정답,596.381930199917,596.381930199917,596.881967700087,597.385910900077,NaN,,NaN,NaN,NaN,,,NaN,,,NaN,NaN,NaN,,NaN,NaN,NaN,NaN,NaN,NaN,NaN,10,27,남자,yes,yes,yes,yes,no,2023-04-10_16h28.52.646,Main,2022.2.4,29.8712459722135
34,나를 데려가줘,6,Orange,B,0,0,ScrollDown,ScrollUp,Orange.png,2,NonTarget,NonTarget,,,NaN,,,NaN,NaN,NaN,NaN,NaN,NaN,NaN,NaN,NaN,NaN,NaN,NaN,0,0,0,0,NaN,NaN,NaN,NaN,NaN,NaN,NaN,NaN,0,0,0,0,NaN,NaN,NaN,NaN,1,0,1,0,0,33,33,33,NaN,NaN,NaN,NaN,NaN,NaN,NaN,NaN,NaN,NaN,NaN,NaN,NaN,NaN,NaN,NaN,NaN,NaN,NaN,NaN,NaN,,NaN,NaN,NaN,NaN,NaN,NaN,NaN,NaN,NaN,NaN,NaN,,,NaN,NaN,NaN,NaN,597.385910900077,597.385910900077,597.385910900077,597.385910900077,597.385910900077,1.08333333333333,1.06618650001474,ScrollDown,정답,598.48200999992,598.48200999992,598.982054200023,599.488862999948,NaN,,NaN,NaN,NaN,,,NaN,,,NaN,NaN,NaN,,NaN,NaN,NaN,NaN,NaN,NaN,NaN,10,27,남자,yes,yes,yes,yes,no,2023-04-10_16h28.52.646,Main,2022.2.4,29.8712459722135
35,넌 편파적이야,5,Orange,B,2.125,2,ScrollUp,ScrollDown,Orange.png,2,Negative,Congruent,,,NaN,,,NaN,NaN,NaN,NaN,NaN,NaN,NaN,NaN,NaN,NaN,NaN,NaN,0,0,0,0,NaN,NaN,NaN,NaN,NaN,NaN,NaN,NaN,0,0,0,0,NaN,NaN,NaN,NaN,1,0,1,0,0,34,34,34,NaN,NaN,NaN,NaN,NaN,NaN,NaN,NaN,NaN,NaN,NaN,NaN,NaN,NaN,NaN,NaN,NaN,NaN,NaN,NaN,NaN,,NaN,NaN,NaN,NaN,NaN,NaN,NaN,NaN,NaN,NaN,NaN,,,NaN,NaN,NaN,NaN,599.488862999948,599.488862999948,599.488862999948,599.488862999948,599.488862999948,1.56481481481481,0.837528399890289,ScrollUp,정답,600.349126100074,600.349126100074,600.848750000121,601.361174900085,NaN,,NaN,NaN,NaN,,,NaN,,,NaN,NaN,NaN,,NaN,NaN,NaN,NaN,NaN,NaN,NaN,10,27,남자,yes,yes,yes,yes,no,2023-04-10_16h28.52.646,Main,2022.2.4,29.8712459722135
36,넌 슬퍼,4,Green,A,2.58333333333333,3.06666666666667,ScrollDown,ScrollUp,Green.png,2,Negative,Incongruent,,,NaN,,,NaN,NaN,NaN,NaN,NaN,NaN,NaN,NaN,NaN,NaN,NaN,NaN,0,0,0,0,NaN,NaN,NaN,NaN,NaN,NaN,NaN,NaN,0,0,0,0,NaN,NaN,NaN,NaN,1,0,1,0,0,35,35,35,NaN,NaN,NaN,NaN,NaN,NaN,NaN,NaN,NaN,NaN,NaN,NaN,NaN,NaN,NaN,NaN,NaN,NaN,NaN,NaN,NaN,,NaN,NaN,NaN,NaN,NaN,NaN,NaN,NaN,NaN,NaN,NaN,,,NaN,NaN,NaN,NaN,601.361174900085,601.361174900085,601.361174900085,601.361174900085,601.361174900085,1.26388888888889,0.865318299969658,ScrollDown,정답,602.248918199912,602.248918199912,602.749044500059,603.257138099987,NaN,,NaN,NaN,NaN,,,NaN,,,NaN,NaN,NaN,,NaN,NaN,NaN,NaN,NaN,NaN,NaN,10,27,남자,yes,yes,yes,yes,no,2023-04-10_16h28.52.646,Main,2022.2.4,29.8712459722135
37,나를 데려가줘,6,Orange,B,0,0,ScrollDown,ScrollUp,Orange.png,2,NonTarget,NonTarget,,,NaN,,,NaN,NaN,NaN,NaN,NaN,NaN,NaN,NaN,NaN,NaN,NaN,NaN,0,0,0,0,NaN,NaN,NaN,NaN,NaN,NaN,NaN,NaN,0,0,0,0,NaN,NaN,NaN,NaN,1,0,1,0,0,36,36,36,NaN,NaN,NaN,NaN,NaN,NaN,NaN,NaN,NaN,NaN,NaN,NaN,NaN,NaN,NaN,NaN,NaN,NaN,NaN,NaN,NaN,,NaN,NaN,NaN,NaN,NaN,NaN,NaN,NaN,NaN,NaN,NaN,,,NaN,NaN,NaN,NaN,603.257138099987,603.257138099987,603.257138099987,603.257138099987,603.257138099987,1.19444444444444,0.765342600177974,ScrollDown,정답,604.04860999994,604.04860999994,604.548782899976,605.048721099971,NaN,,NaN,NaN,NaN,,,NaN,,,NaN,NaN,NaN,,NaN,NaN,NaN,NaN,NaN,NaN,NaN,10,27,남자,yes,yes,yes,yes,no,2023-04-10_16h28.52.646,Main,2022.2.4,29.8712459722135
38,넌 친절해,1,Orange,B,6.04166666666667,5.53333333333333,ScrollUp,ScrollDown,Orange.png,2,Positive,Incongruent,,,NaN,,,NaN,NaN,NaN,NaN,NaN,NaN,NaN,NaN,NaN,NaN,NaN,NaN,0,0,0,0,NaN,NaN,NaN,NaN,NaN,NaN,NaN,NaN,0,0,0,0,NaN,NaN,NaN,NaN,1,0,1,0,0,37,37,37,NaN,NaN,NaN,NaN,NaN,NaN,NaN,NaN,NaN,NaN,NaN,NaN,NaN,NaN,NaN,NaN,NaN,NaN,NaN,NaN,NaN,,NaN,NaN,NaN,NaN,NaN,NaN,NaN,NaN,NaN,NaN,NaN,,,NaN,NaN,NaN,NaN,605.048721099971,605.048721099971,605.048721099971,605.048721099971,605.048721099971,1.62191358024691,0.866823700023815,ScrollUp,정답,605.949055399979,605.949055399979,606.448980899993,606.949041200103,NaN,,NaN,NaN,NaN,,,NaN,,,NaN,NaN,NaN,,NaN,NaN,NaN,NaN,NaN,NaN,NaN,10,27,남자,yes,yes,yes,yes,no,2023-04-10_16h28.52.646,Main,2022.2.4,29.8712459722135
NaN,,NaN,,,NaN,NaN,,,,NaN,,,,,NaN,,,NaN,NaN,NaN,NaN,NaN,NaN,NaN,NaN,NaN,NaN,NaN,NaN,0,0,0,0,NaN,NaN,NaN,NaN,NaN,NaN,NaN,NaN,0,0,0,0,NaN,NaN,NaN,NaN,1,0,1,0,NaN,NaN,NaN,NaN,0,0,0,0,NaN,NaN,NaN,NaN,NaN,NaN,NaN,NaN,NaN,NaN,NaN,NaN,NaN,NaN,NaN,NaN,NaN,,NaN,NaN,NaN,NaN,NaN,NaN,NaN,NaN,NaN,NaN,NaN,,,NaN,NaN,NaN,NaN,NaN,NaN,NaN,NaN,NaN,NaN,NaN,,,NaN,NaN,NaN,NaN,3,,NaN,NaN,NaN,,,NaN,,,NaN,NaN,NaN,,NaN,NaN,NaN,NaN,NaN,NaN,NaN,10,27,남자,yes,yes,yes,yes,no,2023-04-10_16h28.52.646,Main,2022.2.4,29.8712459722135
NaN,,NaN,,,NaN,NaN,,,,NaN,,,,,NaN,,,NaN,NaN,NaN,NaN,NaN,NaN,NaN,NaN,NaN,NaN,NaN,NaN,0,0,0,0,NaN,NaN,NaN,NaN,NaN,NaN,NaN,NaN,0,0,0,0,NaN,NaN,NaN,NaN,1,0,1,0,NaN,NaN,NaN,NaN,NaN,NaN,NaN,NaN,NaN,NaN,NaN,NaN,NaN,NaN,NaN,NaN,NaN,NaN,NaN,NaN,NaN,NaN,NaN,NaN,NaN,,NaN,NaN,NaN,NaN,NaN,NaN,NaN,NaN,NaN,NaN,NaN,,,NaN,NaN,NaN,NaN,NaN,NaN,NaN,NaN,NaN,NaN,NaN,,,NaN,NaN,NaN,NaN,NaN,,NaN,NaN,NaN,,,NaN,,,NaN,NaN,NaN,,NaN,NaN,NaN,NaN,NaN,NaN,NaN,10,27,남자,yes,yes,yes,yes,no,2023-04-10_16h28.52.646,Main,2022.2.4,29.8712459722135
1,넌 엉성해,4,Green,A,3,3.3,ScrollDown,ScrollUp,Green.png,3,Negative,Incongruent,,,NaN,,,NaN,NaN,NaN,NaN,NaN,NaN,NaN,NaN,NaN,NaN,NaN,NaN,0,0,0,0,NaN,NaN,NaN,NaN,NaN,NaN,NaN,NaN,0,0,0,0,NaN,NaN,NaN,NaN,2,0,2,0,0,0,0,0,NaN,NaN,NaN,NaN,NaN,NaN,NaN,NaN,NaN,NaN,NaN,NaN,NaN,NaN,NaN,NaN,NaN,NaN,NaN,NaN,NaN,,NaN,NaN,NaN,NaN,NaN,NaN,NaN,NaN,NaN,NaN,NaN,,,NaN,NaN,NaN,NaN,645.874623999931,645.874623999931,645.874623999931,645.874623999931,645.874623999931,1,0.991863399976864,ScrollDown,정답,646.898666599998,646.898666599998,647.398680600105,647.906034500105,NaN,,NaN,NaN,NaN,,,NaN,,,NaN,NaN,NaN,,NaN,NaN,NaN,NaN,NaN,NaN,NaN,10,27,남자,yes,yes,yes,yes,no,2023-04-10_16h28.52.646,Main,2022.2.4,29.8712459722135
2,나를 보내줘,6,Green,A,0,0,ScrollUp,ScrollDown,Green.png,3,NonTarget,NonTarget,,,NaN,,,NaN,NaN,NaN,NaN,NaN,NaN,NaN,NaN,NaN,NaN,NaN,NaN,0,0,0,0,NaN,NaN,NaN,NaN,NaN,NaN,NaN,NaN,0,0,0,0,NaN,NaN,NaN,NaN,2,0,2,0,0,1,1,1,NaN,NaN,NaN,NaN,NaN,NaN,NaN,NaN,NaN,NaN,NaN,NaN,NaN,NaN,NaN,NaN,NaN,NaN,NaN,NaN,NaN,,NaN,NaN,NaN,NaN,NaN,NaN,NaN,NaN,NaN,NaN,NaN,,,NaN,NaN,NaN,NaN,647.906034500105,647.906034500105,647.906034500105,647.906034500105,647.906034500105,1.65895061728395,0.83734430000186,ScrollUp,정답,648.765444499906,648.765444499906,649.265307799913,649.773197799921,NaN,,NaN,NaN,NaN,,,NaN,,,NaN,NaN,NaN,,NaN,NaN,NaN,NaN,NaN,NaN,NaN,10,27,남자,yes,yes,yes,yes,no,2023-04-10_16h28.52.646,Main,2022.2.4,29.8712459722135
3,넌 활발해,1,Orange,B,5.66666666666667,5.6,ScrollUp,ScrollDown,Orange.png,3,Positive,Incongruent,,,NaN,,,NaN,NaN,NaN,NaN,NaN,NaN,NaN,NaN,NaN,NaN,NaN,NaN,0,0,0,0,NaN,NaN,NaN,NaN,NaN,NaN,NaN,NaN,0,0,0,0,NaN,NaN,NaN,NaN,2,0,2,0,0,2,2,2,NaN,NaN,NaN,NaN,NaN,NaN,NaN,NaN,NaN,NaN,NaN,NaN,NaN,NaN,NaN,NaN,NaN,NaN,NaN,NaN,NaN,,NaN,NaN,NaN,NaN,NaN,NaN,NaN,NaN,NaN,NaN,NaN,,,NaN,NaN,NaN,NaN,649.773197799921,649.773197799921,649.773197799921,649.773197799921,649.773197799921,1.64197530864198,0.765584900043905,ScrollUp,정답,650.565666700015,650.565666700015,651.066135199973,651.598314600065,NaN,,NaN,NaN,NaN,,,NaN,,,NaN,NaN,NaN,,NaN,NaN,NaN,NaN,NaN,NaN,NaN,10,27,남자,yes,yes,yes,yes,no,2023-04-10_16h28.52.646,Main,2022.2.4,29.8712459722135
4,넌 논리적이야,2,Green,A,5.66666666666667,4.63333333333333,ScrollDown,ScrollUp,Green.png,3,Positive,Congruent,,,NaN,,,NaN,NaN,NaN,NaN,NaN,NaN,NaN,NaN,NaN,NaN,NaN,NaN,0,0,0,0,NaN,NaN,NaN,NaN,NaN,NaN,NaN,NaN,0,0,0,0,NaN,NaN,NaN,NaN,2,0,2,0,0,3,3,3,NaN,NaN,NaN,NaN,NaN,NaN,NaN,NaN,NaN,NaN,NaN,NaN,NaN,NaN,NaN,NaN,NaN,NaN,NaN,NaN,NaN,,NaN,NaN,NaN,NaN,NaN,NaN,NaN,NaN,NaN,NaN,NaN,,,NaN,NaN,NaN,NaN,651.598314600065,651.598314600065,651.598314600065,651.598314600065,651.598314600065,1.26697530864198,0.745617700042203,ScrollDown,정답,652.348654099973,652.348654099973,652.848917500116,653.357080700109,NaN,,NaN,NaN,NaN,,,NaN,,,NaN,NaN,NaN,,NaN,NaN,NaN,NaN,NaN,NaN,NaN,10,27,남자,yes,yes,yes,yes,no,2023-04-10_16h28.52.646,Main,2022.2.4,29.8712459722135
5,넌 과묵해,3,Green,A,3.875,4.4,ScrollDown,ScrollUp,Green.png,3,Neutral,Neutral,,,NaN,,,NaN,NaN,NaN,NaN,NaN,NaN,NaN,NaN,NaN,NaN,NaN,NaN,0,0,0,0,NaN,NaN,NaN,NaN,NaN,NaN,NaN,NaN,0,0,0,0,NaN,NaN,NaN,NaN,2,0,2,0,0,4,4,4,NaN,NaN,NaN,NaN,NaN,NaN,NaN,NaN,NaN,NaN,NaN,NaN,NaN,NaN,NaN,NaN,NaN,NaN,NaN,NaN,NaN,,NaN,NaN,NaN,NaN,NaN,NaN,NaN,NaN,NaN,NaN,NaN,,,NaN,NaN,NaN,NaN,653.357080700109,653.357080700109,653.357080700109,653.357080700109,653.357080700109,1.28086419753086,0.664169599767774,ScrollDown,정답,654.049132100074,654.049132100074,654.549080800032,655.057426200015,NaN,,NaN,NaN,NaN,,,NaN,,,NaN,NaN,NaN,,NaN,NaN,NaN,NaN,NaN,NaN,NaN,10,27,남자,yes,yes,yes,yes,no,2023-04-10_16h28.52.646,Main,2022.2.4,29.8712459722135
6,나를 데려가줘,6,Orange,B,0,0,ScrollDown,ScrollUp,Orange.png,3,NonTarget,NonTarget,,,NaN,,,NaN,NaN,NaN,NaN,NaN,NaN,NaN,NaN,NaN,NaN,NaN,NaN,0,0,0,0,NaN,NaN,NaN,NaN,NaN,NaN,NaN,NaN,0,0,0,0,NaN,NaN,NaN,NaN,2,0,2,0,0,5,5,5,NaN,NaN,NaN,NaN,NaN,NaN,NaN,NaN,NaN,NaN,NaN,NaN,NaN,NaN,NaN,NaN,NaN,NaN,NaN,NaN,NaN,,NaN,NaN,NaN,NaN,NaN,NaN,NaN,NaN,NaN,NaN,NaN,,,NaN,NaN,NaN,NaN,655.057426200015,655.057426200015,655.057426200015,655.057426200015,655.057426200015,1.1820987654321,0.866305500036106,ScrollDown,정답,655.948710199911,655.948710199911,656.448666499928,656.95500600012,NaN,,NaN,NaN,NaN,,,NaN,,,NaN,NaN,NaN,,NaN,NaN,NaN,NaN,NaN,NaN,NaN,10,27,남자,yes,yes,yes,yes,no,2023-04-10_16h28.52.646,Main,2022.2.4,29.8712459722135
7,넌 미숙해,4,Orange,B,3,3,ScrollUp,ScrollDown,Orange.png,3,Negative,Congruent,,,NaN,,,NaN,NaN,NaN,NaN,NaN,NaN,NaN,NaN,NaN,NaN,NaN,NaN,0,0,0,0,NaN,NaN,NaN,NaN,NaN,NaN,NaN,NaN,0,0,0,0,NaN,NaN,NaN,NaN,2,0,2,0,0,6,6,6,NaN,NaN,NaN,NaN,NaN,NaN,NaN,NaN,NaN,NaN,NaN,NaN,NaN,NaN,NaN,NaN,NaN,NaN,NaN,NaN,NaN,,NaN,NaN,NaN,NaN,NaN,NaN,NaN,NaN,NaN,NaN,NaN,,,NaN,NaN,NaN,NaN,656.95500600012,656.95500600012,656.95500600012,656.95500600012,656.95500600012,1.58024691358025,0.798396799946204,ScrollUp,정답,657.782420499949,657.782420499949,658.28212410002,658.798579500057,NaN,,NaN,NaN,NaN,,,NaN,,,NaN,NaN,NaN,,NaN,NaN,NaN,NaN,NaN,NaN,NaN,10,27,남자,yes,yes,yes,yes,no,2023-04-10_16h28.52.646,Main,2022.2.4,29.8712459722135
8,나를 보내줘,6,Green,A,0,0,ScrollUp,ScrollDown,Green.png,3,NonTarget,NonTarget,,,NaN,,,NaN,NaN,NaN,NaN,NaN,NaN,NaN,NaN,NaN,NaN,NaN,NaN,0,0,0,0,NaN,NaN,NaN,NaN,NaN,NaN,NaN,NaN,0,0,0,0,NaN,NaN,NaN,NaN,2,0,2,0,0,7,7,7,NaN,NaN,NaN,NaN,NaN,NaN,NaN,NaN,NaN,NaN,NaN,NaN,NaN,NaN,NaN,NaN,NaN,NaN,NaN,NaN,NaN,,NaN,NaN,NaN,NaN,NaN,NaN,NaN,NaN,NaN,NaN,NaN,,,NaN,NaN,NaN,NaN,658.798579500057,658.798579500057,658.798579500057,658.798579500057,658.798579500057,1.58950617283951,0.864218800095841,ScrollUp,정답,659.682053900091,659.682053900091,660.182566199917,660.706051799934,NaN,,NaN,NaN,NaN,,,NaN,,,NaN,NaN,NaN,,NaN,NaN,NaN,NaN,NaN,NaN,NaN,10,27,남자,yes,yes,yes,yes,no,2023-04-10_16h28.52.646,Main,2022.2.4,29.8712459722135
9,넌 자신만만해,3,Orange,B,4.83333333333333,4.33333333333333,ScrollUp,ScrollDown,Orange.png,3,Neutral,Neutral,,,NaN,,,NaN,NaN,NaN,NaN,NaN,NaN,NaN,NaN,NaN,NaN,NaN,NaN,0,0,0,0,NaN,NaN,NaN,NaN,NaN,NaN,NaN,NaN,0,0,0,0,NaN,NaN,NaN,NaN,2,0,2,0,0,8,8,8,NaN,NaN,NaN,NaN,NaN,NaN,NaN,NaN,NaN,NaN,NaN,NaN,NaN,NaN,NaN,NaN,NaN,NaN,NaN,NaN,NaN,,NaN,NaN,NaN,NaN,NaN,NaN,NaN,NaN,NaN,NaN,NaN,,,NaN,NaN,NaN,NaN,660.706051799934,660.706051799934,660.706051799934,660.706051799934,660.706051799934,1.64351851851852,0.896863400004804,ScrollUp,정답,661.615386500023,661.615386500023,662.115359500051,662.641703400062,NaN,,NaN,NaN,NaN,,,NaN,,,NaN,NaN,NaN,,NaN,NaN,NaN,NaN,NaN,NaN,NaN,10,27,남자,yes,yes,yes,yes,no,2023-04-10_16h28.52.646,Main,2022.2.4,29.8712459722135
10,넌 탐욕스러워,5,Green,A,2.25,2.1,ScrollDown,ScrollUp,Green.png,3,Negative,Incongruent,,,NaN,,,NaN,NaN,NaN,NaN,NaN,NaN,NaN,NaN,NaN,NaN,NaN,NaN,0,0,0,0,NaN,NaN,NaN,NaN,NaN,NaN,NaN,NaN,0,0,0,0,NaN,NaN,NaN,NaN,2,0,2,0,0,9,9,9,NaN,NaN,NaN,NaN,NaN,NaN,NaN,NaN,NaN,NaN,NaN,NaN,NaN,NaN,NaN,NaN,NaN,NaN,NaN,NaN,NaN,,NaN,NaN,NaN,NaN,NaN,NaN,NaN,NaN,NaN,NaN,NaN,,,NaN,NaN,NaN,NaN,662.641703400062,662.641703400062,662.641703400062,662.641703400062,662.641703400062,1.25925925925926,0.714213600149378,ScrollDown,정답,663.371190099977,663.371190099977,663.898810999934,NaN,NaN,,NaN,NaN,NaN,,,NaN,,,NaN,NaN,NaN,,NaN,NaN,NaN,NaN,NaN,NaN,NaN,10,27,남자,yes,yes,yes,yes,no,2023-04-10_16h28.52.646,Main,2022.2.4,29.8712459722135
11,넌 인기있어,2,Green,A,5.45833333333333,4.5,ScrollDown,ScrollUp,Green.png,3,Positive,Congruent,,,NaN,,,NaN,NaN,NaN,NaN,NaN,NaN,NaN,NaN,NaN,NaN,NaN,NaN,0,0,0,0,NaN,NaN,NaN,NaN,NaN,NaN,NaN,NaN,0,0,0,0,NaN,NaN,NaN,NaN,2,0,2,0,0,10,10,10,NaN,NaN,NaN,NaN,NaN,NaN,NaN,NaN,NaN,NaN,NaN,NaN,NaN,NaN,NaN,NaN,NaN,NaN,NaN,NaN,NaN,,NaN,NaN,NaN,NaN,NaN,NaN,NaN,NaN,NaN,NaN,NaN,,,NaN,NaN,NaN,NaN,664.405988200102,664.405988200102,664.405988200102,664.405988200102,664.405988200102,1.31018518518519,0.630629200022668,ScrollDown,정답,665.065370599972,665.065370599972,665.565641300054,666.074327599956,NaN,,NaN,NaN,NaN,,,NaN,,,NaN,NaN,NaN,,NaN,NaN,NaN,NaN,NaN,NaN,NaN,10,27,남자,yes,yes,yes,yes,no,2023-04-10_16h28.52.646,Main,2022.2.4,29.8712459722135
12,나를 데려가줘,6,Orange,B,0,0,ScrollDown,ScrollUp,Orange.png,3,NonTarget,NonTarget,,,NaN,,,NaN,NaN,NaN,NaN,NaN,NaN,NaN,NaN,NaN,NaN,NaN,NaN,0,0,0,0,NaN,NaN,NaN,NaN,NaN,NaN,NaN,NaN,0,0,0,0,NaN,NaN,NaN,NaN,2,0,2,0,0,11,11,11,NaN,NaN,NaN,NaN,NaN,NaN,NaN,NaN,NaN,NaN,NaN,NaN,NaN,NaN,NaN,NaN,NaN,NaN,NaN,NaN,NaN,,NaN,NaN,NaN,NaN,NaN,NaN,NaN,NaN,NaN,NaN,NaN,,,NaN,NaN,NaN,NaN,666.074327599956,666.074327599956,666.074327599956,666.074327599956,666.074327599956,1.33950617283951,0.900006299838424,ScrollDown,정답,666.99869389995,666.99869389995,667.498847099952,667.99866900011,NaN,,NaN,NaN,NaN,,,NaN,,,NaN,NaN,NaN,,NaN,NaN,NaN,NaN,NaN,NaN,NaN,10,27,남자,yes,yes,yes,yes,no,2023-04-10_16h28.52.646,Main,2022.2.4,29.8712459722135
13,넌 뛰어나,2,Orange,B,6.16666666666667,4,ScrollUp,ScrollDown,Orange.png,3,Positive,Incongruent,,,NaN,,,NaN,NaN,NaN,NaN,NaN,NaN,NaN,NaN,NaN,NaN,NaN,NaN,0,0,0,0,NaN,NaN,NaN,NaN,NaN,NaN,NaN,NaN,0,0,0,0,NaN,NaN,NaN,NaN,2,0,2,0,0,12,12,12,NaN,NaN,NaN,NaN,NaN,NaN,NaN,NaN,NaN,NaN,NaN,NaN,NaN,NaN,NaN,NaN,NaN,NaN,NaN,NaN,NaN,,NaN,NaN,NaN,NaN,NaN,NaN,NaN,NaN,NaN,NaN,NaN,,,NaN,NaN,NaN,NaN,667.99866900011,667.99866900011,667.99866900011,667.99866900011,667.99866900011,1.59259259259259,0.666916199959815,ScrollUp,정답,668.69913990004,668.69913990004,669.198933199979,669.709251400083,NaN,,NaN,NaN,NaN,,,NaN,,,NaN,NaN,NaN,,NaN,NaN,NaN,NaN,NaN,NaN,NaN,10,27,남자,yes,yes,yes,yes,no,2023-04-10_16h28.52.646,Main,2022.2.4,29.8712459722135
14,넌 낙관적이야,1,Green,A,5.75,5.8,ScrollDown,ScrollUp,Green.png,3,Positive,Congruent,,,NaN,,,NaN,NaN,NaN,NaN,NaN,NaN,NaN,NaN,NaN,NaN,NaN,NaN,0,0,0,0,NaN,NaN,NaN,NaN,NaN,NaN,NaN,NaN,0,0,0,0,NaN,NaN,NaN,NaN,2,0,2,0,0,13,13,13,NaN,NaN,NaN,NaN,NaN,NaN,NaN,NaN,NaN,NaN,NaN,NaN,NaN,NaN,NaN,NaN,NaN,NaN,NaN,NaN,NaN,,NaN,NaN,NaN,NaN,NaN,NaN,NaN,NaN,NaN,NaN,NaN,,,NaN,NaN,NaN,NaN,669.709251400083,669.709251400083,669.709251400083,669.709251400083,669.709251400083,1.34259259259259,0.666704299859703,ScrollDown,정답,670.398694100091,670.398694100091,670.898918400053,671.417704799911,NaN,,NaN,NaN,NaN,,,NaN,,,NaN,NaN,NaN,,NaN,NaN,NaN,NaN,NaN,NaN,NaN,10,27,남자,yes,yes,yes,yes,no,2023-04-10_16h28.52.646,Main,2022.2.4,29.8712459722135
15,넌 산만해,4,Orange,B,2.69565217391304,3.03333333333333,ScrollUp,ScrollDown,Orange.png,3,Negative,Congruent,,,NaN,,,NaN,NaN,NaN,NaN,NaN,NaN,NaN,NaN,NaN,NaN,NaN,NaN,0,0,0,0,NaN,NaN,NaN,NaN,NaN,NaN,NaN,NaN,0,0,0,0,NaN,NaN,NaN,NaN,2,0,2,0,0,14,14,14,NaN,NaN,NaN,NaN,NaN,NaN,NaN,NaN,NaN,NaN,NaN,NaN,NaN,NaN,NaN,NaN,NaN,NaN,NaN,NaN,NaN,,NaN,NaN,NaN,NaN,NaN,NaN,NaN,NaN,NaN,NaN,NaN,,,NaN,NaN,NaN,NaN,671.417704799911,671.417704799911,671.417704799911,671.417704799911,671.417704799911,1.5,0.635623699985445,NoResponse,무응답,672.065741900122,672.065741900122,672.56575040007,673.09427989996,NaN,,NaN,NaN,NaN,,,NaN,,,NaN,NaN,NaN,,NaN,NaN,NaN,NaN,NaN,NaN,NaN,10,27,남자,yes,yes,yes,yes,no,2023-04-10_16h28.52.646,Main,2022.2.4,29.8712459722135
16,나를 보내줘,6,Green,A,0,0,ScrollUp,ScrollDown,Green.png,3,NonTarget,NonTarget,,,NaN,,,NaN,NaN,NaN,NaN,NaN,NaN,NaN,NaN,NaN,NaN,NaN,NaN,0,0,0,0,NaN,NaN,NaN,NaN,NaN,NaN,NaN,NaN,0,0,0,0,NaN,NaN,NaN,NaN,2,0,2,0,0,15,15,15,NaN,NaN,NaN,NaN,NaN,NaN,NaN,NaN,NaN,NaN,NaN,NaN,NaN,NaN,NaN,NaN,NaN,NaN,NaN,NaN,NaN,,NaN,NaN,NaN,NaN,NaN,NaN,NaN,NaN,NaN,NaN,NaN,,,NaN,NaN,NaN,NaN,673.09427989996,673.09427989996,673.09427989996,673.09427989996,673.09427989996,1.88888888888889,1.3139988000039,ScrollUp,정답,674.415396299912,674.415396299912,674.915188899962,675.425345400115,NaN,,NaN,NaN,NaN,,,NaN,,,NaN,NaN,NaN,,NaN,NaN,NaN,NaN,NaN,NaN,NaN,10,27,남자,yes,yes,yes,yes,no,2023-04-10_16h28.52.646,Main,2022.2.4,29.8712459722135
17,넌 교활해,5,Orange,B,2.33333333333333,2.13333333333333,ScrollUp,ScrollDown,Orange.png,3,Negative,Congruent,,,NaN,,,NaN,NaN,NaN,NaN,NaN,NaN,NaN,NaN,NaN,NaN,NaN,NaN,0,0,0,0,NaN,NaN,NaN,NaN,NaN,NaN,NaN,NaN,0,0,0,0,NaN,NaN,NaN,NaN,2,0,2,0,0,16,16,16,NaN,NaN,NaN,NaN,NaN,NaN,NaN,NaN,NaN,NaN,NaN,NaN,NaN,NaN,NaN,NaN,NaN,NaN,NaN,NaN,NaN,,NaN,NaN,NaN,NaN,NaN,NaN,NaN,NaN,NaN,NaN,NaN,,,NaN,NaN,NaN,NaN,675.425345400115,675.425345400115,675.425345400115,675.425345400115,675.425345400115,1.66820987654321,0.860917699988931,ScrollUp,정답,676.29860530002,676.29860530002,676.798682699911,677.302999000065,NaN,,NaN,NaN,NaN,,,NaN,,,NaN,NaN,NaN,,NaN,NaN,NaN,NaN,NaN,NaN,NaN,10,27,남자,yes,yes,yes,yes,no,2023-04-10_16h28.52.646,Main,2022.2.4,29.8712459722135
18,나를 보내줘,6,Green,A,0,0,ScrollUp,ScrollDown,Green.png,3,NonTarget,NonTarget,,,NaN,,,NaN,NaN,NaN,NaN,NaN,NaN,NaN,NaN,NaN,NaN,NaN,NaN,0,0,0,0,NaN,NaN,NaN,NaN,NaN,NaN,NaN,NaN,0,0,0,0,NaN,NaN,NaN,NaN,2,0,2,0,0,17,17,17,NaN,NaN,NaN,NaN,NaN,NaN,NaN,NaN,NaN,NaN,NaN,NaN,NaN,NaN,NaN,NaN,NaN,NaN,NaN,NaN,NaN,,NaN,NaN,NaN,NaN,NaN,NaN,NaN,NaN,NaN,NaN,NaN,,,NaN,NaN,NaN,NaN,677.302999000065,677.302999000065,677.302999000065,677.302999000065,677.302999000065,1.85030864197531,1.06621129997075,ScrollUp,정답,678.398843300063,678.398843300063,678.898982099956,679.424532500096,NaN,,NaN,NaN,NaN,,,NaN,,,NaN,NaN,NaN,,NaN,NaN,NaN,NaN,NaN,NaN,NaN,10,27,남자,yes,yes,yes,yes,no,2023-04-10_16h28.52.646,Main,2022.2.4,29.8712459722135
19,넌 불친절해,5,Orange,B,2.20833333333333,2.03333333333333,ScrollUp,ScrollDown,Orange.png,3,Negative,Congruent,,,NaN,,,NaN,NaN,NaN,NaN,NaN,NaN,NaN,NaN,NaN,NaN,NaN,NaN,0,0,0,0,NaN,NaN,NaN,NaN,NaN,NaN,NaN,NaN,0,0,0,0,NaN,NaN,NaN,NaN,2,0,2,0,0,18,18,18,NaN,NaN,NaN,NaN,NaN,NaN,NaN,NaN,NaN,NaN,NaN,NaN,NaN,NaN,NaN,NaN,NaN,NaN,NaN,NaN,NaN,,NaN,NaN,NaN,NaN,NaN,NaN,NaN,NaN,NaN,NaN,NaN,,,NaN,NaN,NaN,NaN,679.424532500096,679.424532500096,679.424532500096,679.424532500096,679.424532500096,1.79320987654321,0.886213300051168,ScrollUp,정답,680.315663899994,680.315663899994,680.815873299958,681.318006899906,NaN,,NaN,NaN,NaN,,,NaN,,,NaN,NaN,NaN,,NaN,NaN,NaN,NaN,NaN,NaN,NaN,10,27,남자,yes,yes,yes,yes,no,2023-04-10_16h28.52.646,Main,2022.2.4,29.8712459722135
20,넌 지적이야,2,Orange,B,5.75,4.36666666666667,ScrollUp,ScrollDown,Orange.png,3,Positive,Incongruent,,,NaN,,,NaN,NaN,NaN,NaN,NaN,NaN,NaN,NaN,NaN,NaN,NaN,NaN,0,0,0,0,NaN,NaN,NaN,NaN,NaN,NaN,NaN,NaN,0,0,0,0,NaN,NaN,NaN,NaN,2,0,2,0,0,19,19,19,NaN,NaN,NaN,NaN,NaN,NaN,NaN,NaN,NaN,NaN,NaN,NaN,NaN,NaN,NaN,NaN,NaN,NaN,NaN,NaN,NaN,,NaN,NaN,NaN,NaN,NaN,NaN,NaN,NaN,NaN,NaN,NaN,,,NaN,NaN,NaN,NaN,681.318006899906,681.318006899906,681.318006899906,681.318006899906,681.318006899906,1.90586419753086,0.764389399904758,ScrollUp,정답,682.115405299934,682.115405299934,682.615348600084,683.12846529996,NaN,,NaN,NaN,NaN,,,NaN,,,NaN,NaN,NaN,,NaN,NaN,NaN,NaN,NaN,NaN,NaN,10,27,남자,yes,yes,yes,yes,no,2023-04-10_16h28.52.646,Main,2022.2.4,29.8712459722135
21,넌 우유부단해,4,Green,A,2.66666666666667,3.16666666666667,ScrollDown,ScrollUp,Green.png,3,Negative,Incongruent,,,NaN,,,NaN,NaN,NaN,NaN,NaN,NaN,NaN,NaN,NaN,NaN,NaN,NaN,0,0,0,0,NaN,NaN,NaN,NaN,NaN,NaN,NaN,NaN,0,0,0,0,NaN,NaN,NaN,NaN,2,0,2,0,0,20,20,20,NaN,NaN,NaN,NaN,NaN,NaN,NaN,NaN,NaN,NaN,NaN,NaN,NaN,NaN,NaN,NaN,NaN,NaN,NaN,NaN,NaN,,NaN,NaN,NaN,NaN,NaN,NaN,NaN,NaN,NaN,NaN,NaN,,,NaN,NaN,NaN,NaN,683.12846529996,683.12846529996,683.12846529996,683.12846529996,683.12846529996,1.05246913580247,0.838454899843782,ScrollDown,정답,683.982434000121,683.982434000121,684.482367800083,685.003226800123,NaN,,NaN,NaN,NaN,,,NaN,,,NaN,NaN,NaN,,NaN,NaN,NaN,NaN,NaN,NaN,NaN,10,27,남자,yes,yes,yes,yes,no,2023-04-10_16h28.52.646,Main,2022.2.4,29.8712459722135
22,나를 데려가줘,6,Orange,B,0,0,ScrollDown,ScrollUp,Orange.png,3,NonTarget,NonTarget,,,NaN,,,NaN,NaN,NaN,NaN,NaN,NaN,NaN,NaN,NaN,NaN,NaN,NaN,0,0,0,0,NaN,NaN,NaN,NaN,NaN,NaN,NaN,NaN,0,0,0,0,NaN,NaN,NaN,NaN,2,0,2,0,0,21,21,21,NaN,NaN,NaN,NaN,NaN,NaN,NaN,NaN,NaN,NaN,NaN,NaN,NaN,NaN,NaN,NaN,NaN,NaN,NaN,NaN,NaN,,NaN,NaN,NaN,NaN,NaN,NaN,NaN,NaN,NaN,NaN,NaN,,,NaN,NaN,NaN,NaN,685.003226800123,685.003226800123,685.003226800123,685.003226800123,685.003226800123,1.16975308641975,0.847359000006691,ScrollDown,정답,685.865783100016,685.865783100016,686.365712099941,686.865765500115,NaN,,NaN,NaN,NaN,,,NaN,,,NaN,NaN,NaN,,NaN,NaN,NaN,NaN,NaN,NaN,NaN,10,27,남자,yes,yes,yes,yes,no,2023-04-10_16h28.52.646,Main,2022.2.4,29.8712459722135
23,넌 성실해,1,Orange,B,6.04166666666667,5.7,ScrollUp,ScrollDown,Orange.png,3,Positive,Incongruent,,,NaN,,,NaN,NaN,NaN,NaN,NaN,NaN,NaN,NaN,NaN,NaN,NaN,NaN,0,0,0,0,NaN,NaN,NaN,NaN,NaN,NaN,NaN,NaN,0,0,0,0,NaN,NaN,NaN,NaN,2,0,2,0,0,22,22,22,NaN,NaN,NaN,NaN,NaN,NaN,NaN,NaN,NaN,NaN,NaN,NaN,NaN,NaN,NaN,NaN,NaN,NaN,NaN,NaN,NaN,,NaN,NaN,NaN,NaN,NaN,NaN,NaN,NaN,NaN,NaN,NaN,,,NaN,NaN,NaN,NaN,686.865765500115,686.865765500115,686.865765500115,686.865765500115,686.865765500115,1.91203703703704,0.732225600164384,ScrollUp,정답,687.631877399981,687.631877399981,688.132176500047,688.652701500105,NaN,,NaN,NaN,NaN,,,NaN,,,NaN,NaN,NaN,,NaN,NaN,NaN,NaN,NaN,NaN,NaN,10,27,남자,yes,yes,yes,yes,no,2023-04-10_16h28.52.646,Main,2022.2.4,29.8712459722135
24,넌 현실주의적이야,3,Green,A,4.625,4.4,ScrollDown,ScrollUp,Green.png,3,Neutral,Neutral,,,NaN,,,NaN,NaN,NaN,NaN,NaN,NaN,NaN,NaN,NaN,NaN,NaN,NaN,0,0,0,0,NaN,NaN,NaN,NaN,NaN,NaN,NaN,NaN,0,0,0,0,NaN,NaN,NaN,NaN,2,0,2,0,0,23,23,23,NaN,NaN,NaN,NaN,NaN,NaN,NaN,NaN,NaN,NaN,NaN,NaN,NaN,NaN,NaN,NaN,NaN,NaN,NaN,NaN,NaN,,NaN,NaN,NaN,NaN,NaN,NaN,NaN,NaN,NaN,NaN,NaN,,,NaN,NaN,NaN,NaN,688.652701500105,688.652701500105,688.652701500105,688.652701500105,688.652701500105,1.10956790123457,0.75255970004946,ScrollDown,정답,689.415779500036,689.415779500036,689.915728199994,690.428491899977,NaN,,NaN,NaN,NaN,,,NaN,,,NaN,NaN,NaN,,NaN,NaN,NaN,NaN,NaN,NaN,NaN,10,27,남자,yes,yes,yes,yes,no,2023-04-10_16h28.52.646,Main,2022.2.4,29.8712459722135
25,넌 진실돼,1,Green,A,6.625,5.56666666666667,ScrollDown,ScrollUp,Green.png,3,Positive,Congruent,,,NaN,,,NaN,NaN,NaN,NaN,NaN,NaN,NaN,NaN,NaN,NaN,NaN,NaN,0,0,0,0,NaN,NaN,NaN,NaN,NaN,NaN,NaN,NaN,0,0,0,0,NaN,NaN,NaN,NaN,2,0,2,0,0,24,24,24,NaN,NaN,NaN,NaN,NaN,NaN,NaN,NaN,NaN,NaN,NaN,NaN,NaN,NaN,NaN,NaN,NaN,NaN,NaN,NaN,NaN,,NaN,NaN,NaN,NaN,NaN,NaN,NaN,NaN,NaN,NaN,NaN,,,NaN,NaN,NaN,NaN,690.428491899977,690.428491899977,690.428491899977,690.428491899977,690.428491899977,1.02469135802469,0.762504599988461,ScrollDown,정답,691.215479900129,691.215479900129,691.715836500051,692.229252299992,NaN,,NaN,NaN,NaN,,,NaN,,,NaN,NaN,NaN,,NaN,NaN,NaN,NaN,NaN,NaN,NaN,10,27,남자,yes,yes,yes,yes,no,2023-04-10_16h28.52.646,Main,2022.2.4,29.8712459722135
26,넌 천진난만해,3,Orange,B,4.95833333333333,4.83333333333333,ScrollUp,ScrollDown,Orange.png,3,Neutral,Neutral,,,NaN,,,NaN,NaN,NaN,NaN,NaN,NaN,NaN,NaN,NaN,NaN,NaN,NaN,0,0,0,0,NaN,NaN,NaN,NaN,NaN,NaN,NaN,NaN,0,0,0,0,NaN,NaN,NaN,NaN,2,0,2,0,0,25,25,25,NaN,NaN,NaN,NaN,NaN,NaN,NaN,NaN,NaN,NaN,NaN,NaN,NaN,NaN,NaN,NaN,NaN,NaN,NaN,NaN,NaN,,NaN,NaN,NaN,NaN,NaN,NaN,NaN,NaN,NaN,NaN,NaN,,,NaN,NaN,NaN,NaN,692.229252299992,692.229252299992,692.229252299992,692.229252299992,692.229252299992,1.73611111111111,0.732470599934459,ScrollUp,정답,692.98207030003,692.98207030003,693.481959600002,693.989537500078,NaN,,NaN,NaN,NaN,,,NaN,,,NaN,NaN,NaN,,NaN,NaN,NaN,NaN,NaN,NaN,NaN,10,27,남자,yes,yes,yes,yes,no,2023-04-10_16h28.52.646,Main,2022.2.4,29.8712459722135
27,넌 교양없어,5,Green,A,2.41666666666667,2.2,ScrollDown,ScrollUp,Green.png,3,Negative,Incongruent,,,NaN,,,NaN,NaN,NaN,NaN,NaN,NaN,NaN,NaN,NaN,NaN,NaN,NaN,0,0,0,0,NaN,NaN,NaN,NaN,NaN,NaN,NaN,NaN,0,0,0,0,NaN,NaN,NaN,NaN,2,0,2,0,0,26,26,26,NaN,NaN,NaN,NaN,NaN,NaN,NaN,NaN,NaN,NaN,NaN,NaN,NaN,NaN,NaN,NaN,NaN,NaN,NaN,NaN,NaN,,NaN,NaN,NaN,NaN,NaN,NaN,NaN,NaN,NaN,NaN,NaN,,,NaN,NaN,NaN,NaN,693.989537500078,693.989537500078,693.989537500078,693.989537500078,693.989537500078,1.33487654320988,0.799444800009951,ScrollDown,정답,694.815925700124,694.815925700124,695.316292300122,695.834651099984,NaN,,NaN,NaN,NaN,,,NaN,,,NaN,NaN,NaN,,NaN,NaN,NaN,NaN,NaN,NaN,NaN,10,27,남자,yes,yes,yes,yes,no,2023-04-10_16h28.52.646,Main,2022.2.4,29.8712459722135
28,나를 보내줘,6,Green,A,0,0,ScrollUp,ScrollDown,Green.png,3,NonTarget,NonTarget,,,NaN,,,NaN,NaN,NaN,NaN,NaN,NaN,NaN,NaN,NaN,NaN,NaN,NaN,0,0,0,0,NaN,NaN,NaN,NaN,NaN,NaN,NaN,NaN,0,0,0,0,NaN,NaN,NaN,NaN,2,0,2,0,0,27,27,27,NaN,NaN,NaN,NaN,NaN,NaN,NaN,NaN,NaN,NaN,NaN,NaN,NaN,NaN,NaN,NaN,NaN,NaN,NaN,NaN,NaN,,NaN,NaN,NaN,NaN,NaN,NaN,NaN,NaN,NaN,NaN,NaN,,,NaN,NaN,NaN,NaN,695.834651099984,695.834651099984,695.834651099984,695.834651099984,695.834651099984,1.83024691358025,1.02940200013109,ScrollUp,정답,696.882055100054,696.882055100054,697.382068899926,697.887869399972,NaN,,NaN,NaN,NaN,,,NaN,,,NaN,NaN,NaN,,NaN,NaN,NaN,NaN,NaN,NaN,NaN,10,27,남자,yes,yes,yes,yes,no,2023-04-10_16h28.52.646,Main,2022.2.4,29.8712459722135
29,넌 엉뚱스러워,3,Green,A,4.16666666666667,4.13333333333333,ScrollDown,ScrollUp,Green.png,3,Neutral,Neutral,,,NaN,,,NaN,NaN,NaN,NaN,NaN,NaN,NaN,NaN,NaN,NaN,NaN,NaN,0,0,0,0,NaN,NaN,NaN,NaN,NaN,NaN,NaN,NaN,0,0,0,0,NaN,NaN,NaN,NaN,2,0,2,0,0,28,28,28,NaN,NaN,NaN,NaN,NaN,NaN,NaN,NaN,NaN,NaN,NaN,NaN,NaN,NaN,NaN,NaN,NaN,NaN,NaN,NaN,NaN,,NaN,NaN,NaN,NaN,NaN,NaN,NaN,NaN,NaN,NaN,NaN,,,NaN,NaN,NaN,NaN,697.887869399972,697.887869399972,697.887869399972,697.887869399972,697.887869399972,1.17438271604938,0.832025200128555,ScrollDown,정답,698.748856500024,698.748856500024,699.248821200104,699.753973199986,NaN,,NaN,NaN,NaN,,,NaN,,,NaN,NaN,NaN,,NaN,NaN,NaN,NaN,NaN,NaN,NaN,10,27,남자,yes,yes,yes,yes,no,2023-04-10_16h28.52.646,Main,2022.2.4,29.8712459722135
30,넌 무지해,4,Orange,B,2.54166666666667,3.06666666666667,ScrollUp,ScrollDown,Orange.png,3,Negative,Congruent,,,NaN,,,NaN,NaN,NaN,NaN,NaN,NaN,NaN,NaN,NaN,NaN,NaN,NaN,0,0,0,0,NaN,NaN,NaN,NaN,NaN,NaN,NaN,NaN,0,0,0,0,NaN,NaN,NaN,NaN,2,0,2,0,0,29,29,29,NaN,NaN,NaN,NaN,NaN,NaN,NaN,NaN,NaN,NaN,NaN,NaN,NaN,NaN,NaN,NaN,NaN,NaN,NaN,NaN,NaN,,NaN,NaN,NaN,NaN,NaN,NaN,NaN,NaN,NaN,NaN,NaN,,,NaN,NaN,NaN,NaN,699.753973199986,699.753973199986,699.753973199986,699.753973199986,699.753973199986,1.92283950617284,0.699573799967766,ScrollUp,정답,700.482323999982,700.482323999982,700.982314300025,701.483240799978,NaN,,NaN,NaN,NaN,,,NaN,,,NaN,NaN,NaN,,NaN,NaN,NaN,NaN,NaN,NaN,NaN,10,27,남자,yes,yes,yes,yes,no,2023-04-10_16h28.52.646,Main,2022.2.4,29.8712459722135
31,넌 음울해,5,Orange,B,2.25,2.23333333333333,ScrollUp,ScrollDown,Orange.png,3,Negative,Congruent,,,NaN,,,NaN,NaN,NaN,NaN,NaN,NaN,NaN,NaN,NaN,NaN,NaN,NaN,0,0,0,0,NaN,NaN,NaN,NaN,NaN,NaN,NaN,NaN,0,0,0,0,NaN,NaN,NaN,NaN,2,0,2,0,0,30,30,30,NaN,NaN,NaN,NaN,NaN,NaN,NaN,NaN,NaN,NaN,NaN,NaN,NaN,NaN,NaN,NaN,NaN,NaN,NaN,NaN,NaN,,NaN,NaN,NaN,NaN,NaN,NaN,NaN,NaN,NaN,NaN,NaN,,,NaN,NaN,NaN,NaN,701.483240799978,701.483240799978,701.483240799978,701.483240799978,701.483240799978,1.95216049382716,0.699726599967107,ScrollUp,정답,702.215428499971,702.215428499971,702.715381399961,703.241256300127,NaN,,NaN,NaN,NaN,,,NaN,,,NaN,NaN,NaN,,NaN,NaN,NaN,NaN,NaN,NaN,NaN,10,27,남자,yes,yes,yes,yes,no,2023-04-10_16h28.52.646,Main,2022.2.4,29.8712459722135
32,넌 냉소적이야,5,Green,A,2.91666666666667,2.4,ScrollDown,ScrollUp,Green.png,3,Negative,Incongruent,,,NaN,,,NaN,NaN,NaN,NaN,NaN,NaN,NaN,NaN,NaN,NaN,NaN,NaN,0,0,0,0,NaN,NaN,NaN,NaN,NaN,NaN,NaN,NaN,0,0,0,0,NaN,NaN,NaN,NaN,2,0,2,0,0,31,31,31,NaN,NaN,NaN,NaN,NaN,NaN,NaN,NaN,NaN,NaN,NaN,NaN,NaN,NaN,NaN,NaN,NaN,NaN,NaN,NaN,NaN,,NaN,NaN,NaN,NaN,NaN,NaN,NaN,NaN,NaN,NaN,NaN,,,NaN,NaN,NaN,NaN,703.241256300127,703.241256300127,703.241256300127,703.241256300127,703.241256300127,1.2608024691358,0.785964200040326,ScrollDown,정답,704.032404399943,704.032404399943,704.532458400121,705.040670200018,NaN,,NaN,NaN,NaN,,,NaN,,,NaN,NaN,NaN,,NaN,NaN,NaN,NaN,NaN,NaN,NaN,10,27,남자,yes,yes,yes,yes,no,2023-04-10_16h28.52.646,Main,2022.2.4,29.8712459722135
33,나를 데려가줘,6,Orange,B,0,0,ScrollDown,ScrollUp,Orange.png,3,NonTarget,NonTarget,,,NaN,,,NaN,NaN,NaN,NaN,NaN,NaN,NaN,NaN,NaN,NaN,NaN,NaN,0,0,0,0,NaN,NaN,NaN,NaN,NaN,NaN,NaN,NaN,0,0,0,0,NaN,NaN,NaN,NaN,2,0,2,0,0,32,32,32,NaN,NaN,NaN,NaN,NaN,NaN,NaN,NaN,NaN,NaN,NaN,NaN,NaN,NaN,NaN,NaN,NaN,NaN,NaN,NaN,NaN,,NaN,NaN,NaN,NaN,NaN,NaN,NaN,NaN,NaN,NaN,NaN,,,NaN,NaN,NaN,NaN,705.040670200018,705.040670200018,705.040670200018,705.040670200018,705.040670200018,1.23611111111111,1.89883590000682,ScrollDown,정답,706.965262799989,706.965262799989,707.465916000074,707.976746000117,NaN,,NaN,NaN,NaN,,,NaN,,,NaN,NaN,NaN,,NaN,NaN,NaN,NaN,NaN,NaN,NaN,10,27,남자,yes,yes,yes,yes,no,2023-04-10_16h28.52.646,Main,2022.2.4,29.8712459722135
34,넌 쾌활해,1,Green,A,5.54166666666667,5.73333333333333,ScrollDown,ScrollUp,Green.png,3,Positive,Congruent,,,NaN,,,NaN,NaN,NaN,NaN,NaN,NaN,NaN,NaN,NaN,NaN,NaN,NaN,0,0,0,0,NaN,NaN,NaN,NaN,NaN,NaN,NaN,NaN,0,0,0,0,NaN,NaN,NaN,NaN,2,0,2,0,0,33,33,33,NaN,NaN,NaN,NaN,NaN,NaN,NaN,NaN,NaN,NaN,NaN,NaN,NaN,NaN,NaN,NaN,NaN,NaN,NaN,NaN,NaN,,NaN,NaN,NaN,NaN,NaN,NaN,NaN,NaN,NaN,NaN,NaN,,,NaN,NaN,NaN,NaN,707.976746000117,707.976746000117,707.976746000117,707.976746000117,707.976746000117,1,0.900255300104618,ScrollDown,정답,708.898742899997,708.898742899997,709.398599100066,709.898610099917,NaN,,NaN,NaN,NaN,,,NaN,,,NaN,NaN,NaN,,NaN,NaN,NaN,NaN,NaN,NaN,NaN,10,27,남자,yes,yes,yes,yes,no,2023-04-10_16h28.52.646,Main,2022.2.4,29.8712459722135
35,나를 보내줘,6,Green,A,0,0,ScrollUp,ScrollDown,Green.png,3,NonTarget,NonTarget,,,NaN,,,NaN,NaN,NaN,NaN,NaN,NaN,NaN,NaN,NaN,NaN,NaN,NaN,0,0,0,0,NaN,NaN,NaN,NaN,NaN,NaN,NaN,NaN,0,0,0,0,NaN,NaN,NaN,NaN,2,0,2,0,0,34,34,34,NaN,NaN,NaN,NaN,NaN,NaN,NaN,NaN,NaN,NaN,NaN,NaN,NaN,NaN,NaN,NaN,NaN,NaN,NaN,NaN,NaN,,NaN,NaN,NaN,NaN,NaN,NaN,NaN,NaN,NaN,NaN,NaN,,,NaN,NaN,NaN,NaN,709.898610099917,709.898610099917,709.898610099917,709.898610099917,709.898610099917,1.74537037037037,0.839474000036716,ScrollUp,정답,710.765786200063,710.765786200063,711.26550190011,711.771360500017,NaN,,NaN,NaN,NaN,,,NaN,,,NaN,NaN,NaN,,NaN,NaN,NaN,NaN,NaN,NaN,NaN,10,27,남자,yes,yes,yes,yes,no,2023-04-10_16h28.52.646,Main,2022.2.4,29.8712459722135
36,넌 명랑해,1,Orange,B,5.73913043478261,5.66666666666667,ScrollUp,ScrollDown,Orange.png,3,Positive,Incongruent,,,NaN,,,NaN,NaN,NaN,NaN,NaN,NaN,NaN,NaN,NaN,NaN,NaN,NaN,0,0,0,0,NaN,NaN,NaN,NaN,NaN,NaN,NaN,NaN,0,0,0,0,NaN,NaN,NaN,NaN,2,0,2,0,0,35,35,35,NaN,NaN,NaN,NaN,NaN,NaN,NaN,NaN,NaN,NaN,NaN,NaN,NaN,NaN,NaN,NaN,NaN,NaN,NaN,NaN,NaN,,NaN,NaN,NaN,NaN,NaN,NaN,NaN,NaN,NaN,NaN,NaN,,,NaN,NaN,NaN,NaN,711.771360500017,711.771360500017,711.771360500017,711.771360500017,711.771360500017,1.7391975308642,1.26563180005178,ScrollUp,정답,713.065501899924,713.065501899924,713.565394100035,714.070787500124,NaN,,NaN,NaN,NaN,,,NaN,,,NaN,NaN,NaN,,NaN,NaN,NaN,NaN,NaN,NaN,NaN,10,27,남자,yes,yes,yes,yes,no,2023-04-10_16h28.52.646,Main,2022.2.4,29.8712459722135
37,넌 멍해,4,Green,A,2.83333333333333,3.4,ScrollDown,ScrollUp,Green.png,3,Negative,Incongruent,,,NaN,,,NaN,NaN,NaN,NaN,NaN,NaN,NaN,NaN,NaN,NaN,NaN,NaN,0,0,0,0,NaN,NaN,NaN,NaN,NaN,NaN,NaN,NaN,0,0,0,0,NaN,NaN,NaN,NaN,2,0,2,0,0,36,36,36,NaN,NaN,NaN,NaN,NaN,NaN,NaN,NaN,NaN,NaN,NaN,NaN,NaN,NaN,NaN,NaN,NaN,NaN,NaN,NaN,NaN,,NaN,NaN,NaN,NaN,NaN,NaN,NaN,NaN,NaN,NaN,NaN,,,NaN,NaN,NaN,NaN,714.070787500124,714.070787500124,714.070787500124,714.070787500124,714.070787500124,1.11111111111111,0.899660099996254,ScrollDown,정답,714.9991570001,714.9991570001,715.498597000027,716.002284700051,NaN,,NaN,NaN,NaN,,,NaN,,,NaN,NaN,NaN,,NaN,NaN,NaN,NaN,NaN,NaN,NaN,10,27,남자,yes,yes,yes,yes,no,2023-04-10_16h28.52.646,Main,2022.2.4,29.8712459722135
38,나를 데려가줘,6,Orange,B,0,0,ScrollDown,ScrollUp,Orange.png,3,NonTarget,NonTarget,,,NaN,,,NaN,NaN,NaN,NaN,NaN,NaN,NaN,NaN,NaN,NaN,NaN,NaN,0,0,0,0,NaN,NaN,NaN,NaN,NaN,NaN,NaN,NaN,0,0,0,0,NaN,NaN,NaN,NaN,2,0,2,0,0,37,37,37,NaN,NaN,NaN,NaN,NaN,NaN,NaN,NaN,NaN,NaN,NaN,NaN,NaN,NaN,NaN,NaN,NaN,NaN,NaN,NaN,NaN,,NaN,NaN,NaN,NaN,NaN,NaN,NaN,NaN,NaN,NaN,NaN,,,NaN,NaN,NaN,NaN,716.002284700051,716.002284700051,716.002284700051,716.002284700051,716.002284700051,1.27314814814815,1.10500480001792,ScrollDown,정답,717.132361300057,717.132361300057,717.632541700033,718.140477800043,NaN,,NaN,NaN,NaN,,,NaN,,,NaN,NaN,NaN,,NaN,NaN,NaN,NaN,NaN,NaN,NaN,10,27,남자,yes,yes,yes,yes,no,2023-04-10_16h28.52.646,Main,2022.2.4,29.8712459722135
39,넌 현명해,2,Green,A,6.54166666666667,4.53333333333333,ScrollDown,ScrollUp,Green.png,3,Positive,Congruent,,,NaN,,,NaN,NaN,NaN,NaN,NaN,NaN,NaN,NaN,NaN,NaN,NaN,NaN,0,0,0,0,NaN,NaN,NaN,NaN,NaN,NaN,NaN,NaN,0,0,0,0,NaN,NaN,NaN,NaN,2,0,2,0,0,38,38,38,NaN,NaN,NaN,NaN,NaN,NaN,NaN,NaN,NaN,NaN,NaN,NaN,NaN,NaN,NaN,NaN,NaN,NaN,NaN,NaN,NaN,,NaN,NaN,NaN,NaN,NaN,NaN,NaN,NaN,NaN,NaN,NaN,,,NaN,NaN,NaN,NaN,718.140477800043,718.140477800043,718.140477800043,718.140477800043,718.140477800043,1.29475308641975,0.965226499829441,ScrollDown,정답,719.132027399959,719.132027399959,719.632112799911,720.141088600038,NaN,,NaN,NaN,NaN,,,NaN,,,NaN,NaN,NaN,,NaN,NaN,NaN,NaN,NaN,NaN,NaN,10,27,남자,yes,yes,yes,yes,no,2023-04-10_16h28.52.646,Main,2022.2.4,29.8712459722135
40,넌 수줍어,3,Orange,B,3.54166666666667,4.36666666666667,ScrollUp,ScrollDown,Orange.png,3,Neutral,Neutral,,,NaN,,,NaN,NaN,NaN,NaN,NaN,NaN,NaN,NaN,NaN,NaN,NaN,NaN,0,0,0,0,NaN,NaN,NaN,NaN,NaN,NaN,NaN,NaN,0,0,0,0,NaN,NaN,NaN,NaN,2,0,2,0,0,39,39,39,NaN,NaN,NaN,NaN,NaN,NaN,NaN,NaN,NaN,NaN,NaN,NaN,NaN,NaN,NaN,NaN,NaN,NaN,NaN,NaN,NaN,,NaN,NaN,NaN,NaN,NaN,NaN,NaN,NaN,NaN,NaN,NaN,,,NaN,NaN,NaN,NaN,720.141088600038,720.141088600038,720.141088600038,720.141088600038,720.141088600038,1.71296296296296,0.733206799952313,ScrollUp,정답,720.89876329992,720.89876329992,721.398741400102,721.898730899906,NaN,,NaN,NaN,NaN,,,NaN,,,NaN,NaN,NaN,,NaN,NaN,NaN,NaN,NaN,NaN,NaN,10,27,남자,yes,yes,yes,yes,no,2023-04-10_16h28.52.646,Main,2022.2.4,29.8712459722135
41,나를 데려가줘,6,Orange,B,0,0,ScrollDown,ScrollUp,Orange.png,3,NonTarget,NonTarget,,,NaN,,,NaN,NaN,NaN,NaN,NaN,NaN,NaN,NaN,NaN,NaN,NaN,NaN,0,0,0,0,NaN,NaN,NaN,NaN,NaN,NaN,NaN,NaN,0,0,0,0,NaN,NaN,NaN,NaN,2,0,2,0,0,40,40,40,NaN,NaN,NaN,NaN,NaN,NaN,NaN,NaN,NaN,NaN,NaN,NaN,NaN,NaN,NaN,NaN,NaN,NaN,NaN,NaN,NaN,,NaN,NaN,NaN,NaN,NaN,NaN,NaN,NaN,NaN,NaN,NaN,,,NaN,NaN,NaN,NaN,721.898730899906,721.898730899906,721.898730899906,721.898730899906,721.898730899906,1.95524691358025,0.705404199892655,ScrollUp,오답,722.632580799982,722.632580799982,723.132613599999,723.632460199995,NaN,,NaN,NaN,NaN,,,NaN,,,NaN,NaN,NaN,,NaN,NaN,NaN,NaN,NaN,NaN,NaN,10,27,남자,yes,yes,yes,yes,no,2023-04-10_16h28.52.646,Main,2022.2.4,29.8712459722135
42,넌 성숙해,2,Orange,B,5.83333333333333,4.53333333333333,ScrollUp,ScrollDown,Orange.png,3,Positive,Incongruent,,,NaN,,,NaN,NaN,NaN,NaN,NaN,NaN,NaN,NaN,NaN,NaN,NaN,NaN,0,0,0,0,NaN,NaN,NaN,NaN,NaN,NaN,NaN,NaN,0,0,0,0,NaN,NaN,NaN,NaN,2,0,2,0,0,41,41,41,NaN,NaN,NaN,NaN,NaN,NaN,NaN,NaN,NaN,NaN,NaN,NaN,NaN,NaN,NaN,NaN,NaN,NaN,NaN,NaN,NaN,,NaN,NaN,NaN,NaN,NaN,NaN,NaN,NaN,NaN,NaN,NaN,,,NaN,NaN,NaN,NaN,723.632460199995,723.632460199995,723.632460199995,723.632460199995,723.632460199995,1.7962962962963,1.00042880000547,ScrollUp,정답,724.665523200063,724.665523200063,725.165502000134,725.665609600022,NaN,,NaN,NaN,NaN,,,NaN,,,NaN,NaN,NaN,,NaN,NaN,NaN,NaN,NaN,NaN,NaN,10,27,남자,yes,yes,yes,yes,no,2023-04-10_16h28.52.646,Main,2022.2.4,29.8712459722135
NaN,,NaN,,,NaN,NaN,,,,NaN,,,,,NaN,,,NaN,NaN,NaN,NaN,NaN,NaN,NaN,NaN,NaN,NaN,NaN,NaN,0,0,0,0,NaN,NaN,NaN,NaN,NaN,NaN,NaN,NaN,0,0,0,0,NaN,NaN,NaN,NaN,2,0,2,0,NaN,NaN,NaN,NaN,NaN,NaN,NaN,NaN,NaN,NaN,NaN,NaN,NaN,NaN,NaN,NaN,NaN,NaN,NaN,NaN,NaN,NaN,NaN,NaN,NaN,,NaN,NaN,NaN,NaN,NaN,NaN,NaN,NaN,NaN,NaN,NaN,,,NaN,NaN,NaN,NaN,NaN,NaN,NaN,NaN,NaN,NaN,NaN,,,NaN,NaN,NaN,NaN,4,,NaN,NaN,NaN,,,NaN,,,NaN,NaN,NaN,,NaN,NaN,NaN,NaN,NaN,NaN,NaN,10,27,남자,yes,yes,yes,yes,no,2023-04-10_16h28.52.646,Main,2022.2.4,29.8712459722135
NaN,,NaN,,,NaN,NaN,,,,NaN,,,,,NaN,,,NaN,NaN,NaN,NaN,NaN,NaN,NaN,NaN,NaN,NaN,NaN,NaN,0,0,0,0,NaN,NaN,NaN,NaN,NaN,NaN,NaN,NaN,0,0,0,0,NaN,NaN,NaN,NaN,NaN,NaN,NaN,NaN,NaN,NaN,NaN,NaN,NaN,NaN,NaN,NaN,NaN,NaN,NaN,NaN,NaN,NaN,NaN,NaN,NaN,NaN,NaN,NaN,NaN,NaN,NaN,NaN,NaN,,NaN,NaN,NaN,NaN,NaN,NaN,NaN,NaN,NaN,NaN,NaN,,,NaN,NaN,NaN,NaN,NaN,NaN,NaN,NaN,NaN,NaN,NaN,,,NaN,NaN,NaN,NaN,NaN,,NaN,NaN,NaN,,,NaN,,,NaN,NaN,NaN,,NaN,NaN,NaN,NaN,NaN,NaN,NaN,10,27,남자,yes,yes,yes,yes,no,2023-04-10_16h28.52.646,Main,2022.2.4,29.8712459722135
NaN,,NaN,,,NaN,NaN,,,,NaN,,,,,NaN,,,NaN,NaN,NaN,NaN,NaN,NaN,NaN,NaN,NaN,NaN,NaN,NaN,0,0,0,0,NaN,NaN,NaN,NaN,NaN,NaN,NaN,NaN,NaN,NaN,NaN,NaN,NaN,NaN,NaN,NaN,NaN,NaN,NaN,NaN,NaN,NaN,NaN,NaN,NaN,NaN,NaN,NaN,NaN,NaN,NaN,NaN,NaN,NaN,NaN,NaN,NaN,NaN,NaN,NaN,NaN,NaN,NaN,NaN,NaN,,NaN,NaN,NaN,NaN,NaN,NaN,NaN,NaN,NaN,NaN,NaN,,,NaN,NaN,NaN,NaN,NaN,NaN,NaN,NaN,NaN,NaN,NaN,,,NaN,NaN,NaN,NaN,NaN,,NaN,NaN,NaN,,,NaN,,,NaN,NaN,NaN,,NaN,NaN,NaN,NaN,NaN,NaN,NaN,10,27,남자,yes,yes,yes,yes,no,2023-04-10_16h28.52.646,Main,2022.2.4,29.8712459722135
