TrialNum,Word,WordCategory,FishType,WordList,WordValence,WordReputation,CorrectResp,IncorrectResp,FishTypeFile,Round,WordType,Condition,target,distractor,set,ans1,ans2,weather_thisRepN,weather_thisTrialN,weather_thisN,weather_thisIndex,wth_repeat_prac_thisRepN,wth_repeat_prac_thisTrialN,wth_repeat_prac_thisN,wth_repeat_prac_thisIndex,wth_trials_thisRepN,wth_trials_thisTrialN,wth_trials_thisN,wth_trials_thisIndex,total_experiment_thisRepN,total_experiment_thisTrialN,total_experiment_thisN,total_experiment_thisIndex,boat_thisRepN,boat_thisTrialN,boat_thisN,boat_thisIndex,para_thisRepN,para_thisTrialN,para_thisN,para_thisIndex,fish_thisRepN,fish_thisTrialN,fish_thisN,fish_thisIndex,fis_temp_thisRepN,fis_temp_thisTrialN,fis_temp_thisN,fis_temp_thisIndex,fis_round_thisRepN,fis_round_thisTrialN,fis_round_thisN,fis_round_thisIndex,fis_trials_thisRepN,fis_trials_thisTrialN,fis_trials_thisN,fis_trials_thisIndex,fis_main_break_thisRepN,fis_main_break_thisTrialN,fis_main_break_thisN,fis_main_break_thisIndex,flanker_prac_loop_thisRepN,flanker_prac_loop_thisTrialN,flanker_prac_loop_thisN,flanker_prac_loop_thisIndex,flanker_main_loop_thisRepN,flanker_main_loop_thisTrialN,flanker_main_loop_thisN,flanker_main_loop_thisIndex,para_prac_loop_thisRepN,para_prac_loop_thisTrialN,para_prac_loop_thisN,para_prac_loop_thisIndex,para_main_loop_thisRepN,para_main_loop_thisTrialN,para_main_loop_thisN,para_main_loop_thisIndex,stimulus_interval,wth_resp,wth_rt,wth_valence_rating_2_response,wth_self_rating_2_response,wth_valence_rating_response,wth_self_rating_response,fis_slider_2_started,Fish_2_started,fis_WordBox_2_started,fis_Words_2_started,fis_slider_2_response,fis_slider_2_rt,Response_2,Feedback_2,fis_BackGround_Feedback_2_started,fis_Feedbacks_2_started,fis_Feedbacks_2_stopped,fis_BackGround_Feedback_2_stopped,fis_slider_started,fis_BackGround_started,Fish_started,fis_WordBox_started,fis_Words_started,fis_slider_response,fis_slider_rt,Response,Feedback,fis_BackGround_Feedback_started,fis_Feedbacks_started,fis_Feedbacks_stopped,fis_BackGround_Feedback_stopped,fis_roundN,main_prac,fl_cold,fl_colt,fl_set,fl_dcond,fl_tcond,targ_started,fl_ans,fl_res,fl_corr,fl_rt,fl_rt_2,fl_key_resp_keys,st_ans,st_res,st_corr,st_rt,st_rt2,st2_resp_keys,st2_resp_corr,id_,x___,x__,weather,boat,parachute,fish,test_mode,date,expName,psychopyVersion,frameRate
NaN,,NaN,,,NaN,NaN,,,,NaN,,,,,NaN,,,0,0,0,0,0,0,0,0,NaN,NaN,NaN,NaN,NaN,NaN,NaN,NaN,NaN,NaN,NaN,NaN,NaN,NaN,NaN,NaN,NaN,NaN,NaN,NaN,NaN,NaN,NaN,NaN,NaN,NaN,NaN,NaN,NaN,NaN,NaN,NaN,NaN,NaN,NaN,NaN,NaN,NaN,NaN,NaN,NaN,NaN,NaN,NaN,NaN,NaN,NaN,NaN,NaN,NaN,NaN,NaN,30,고구마,19.4263529000001,1,0.868312757201646,NaN,NaN,NaN,NaN,NaN,NaN,NaN,NaN,,,NaN,NaN,NaN,NaN,NaN,NaN,NaN,NaN,NaN,NaN,NaN,,,NaN,NaN,NaN,NaN,NaN,,NaN,NaN,NaN,,,NaN,,,NaN,NaN,NaN,,NaN,NaN,NaN,NaN,NaN,NaN,NaN,4,26,여자,yes,yes,yes,yes,no,2022-11-22_12h26.45.095,Main,2022.2.4,59.5453238164227
NaN,,NaN,,,NaN,NaN,,,,NaN,,,,,NaN,,,0,0,0,0,NaN,NaN,NaN,NaN,0,0,0,0,NaN,NaN,NaN,NaN,NaN,NaN,NaN,NaN,NaN,NaN,NaN,NaN,NaN,NaN,NaN,NaN,NaN,NaN,NaN,NaN,NaN,NaN,NaN,NaN,NaN,NaN,NaN,NaN,NaN,NaN,NaN,NaN,NaN,NaN,NaN,NaN,NaN,NaN,NaN,NaN,NaN,NaN,NaN,NaN,NaN,NaN,NaN,NaN,30,옥수수
,9.07940050000002,NaN,NaN,0.868312757201646,0.831275720164609,NaN,NaN,NaN,NaN,NaN,NaN,,,NaN,NaN,NaN,NaN,NaN,NaN,NaN,NaN,NaN,NaN,NaN,,,NaN,NaN,NaN,NaN,NaN,,NaN,NaN,NaN,,,NaN,,,NaN,NaN,NaN,,NaN,NaN,NaN,NaN,NaN,NaN,NaN,4,26,여자,yes,yes,yes,yes,no,2022-11-22_12h26.45.095,Main,2022.2.4,59.5453238164227
NaN,,NaN,,,NaN,NaN,,,,NaN,,,,,NaN,,,0,0,0,0,NaN,NaN,NaN,NaN,1,0,1,0,NaN,NaN,NaN,NaN,NaN,NaN,NaN,NaN,NaN,NaN,NaN,NaN,NaN,NaN,NaN,NaN,NaN,NaN,NaN,NaN,NaN,NaN,NaN,NaN,NaN,NaN,NaN,NaN,NaN,NaN,NaN,NaN,NaN,NaN,NaN,NaN,NaN,NaN,NaN,NaN,NaN,NaN,NaN,NaN,NaN,NaN,NaN,NaN,30,병원

,11.0438181,NaN,NaN,0.329218106995885,0.909465020576132,NaN,NaN,NaN,NaN,NaN,NaN,,,NaN,NaN,NaN,NaN,NaN,NaN,NaN,NaN,NaN,NaN,NaN,,,NaN,NaN,NaN,NaN,NaN,,NaN,NaN,NaN,,,NaN,,,NaN,NaN,NaN,,NaN,NaN,NaN,NaN,NaN,NaN,NaN,4,26,여자,yes,yes,yes,yes,no,2022-11-22_12h26.45.095,Main,2022.2.4,59.5453238164227
NaN,,NaN,,,NaN,NaN,,,,NaN,,,,,NaN,,,0,0,0,0,NaN,NaN,NaN,NaN,2,0,2,0,NaN,NaN,NaN,NaN,NaN,NaN,NaN,NaN,NaN,NaN,NaN,NaN,NaN,NaN,NaN,NaN,NaN,NaN,NaN,NaN,NaN,NaN,NaN,NaN,NaN,NaN,NaN,NaN,NaN,NaN,NaN,NaN,NaN,NaN,NaN,NaN,NaN,NaN,NaN,NaN,NaN,NaN,NaN,NaN,NaN,NaN,NaN,NaN,30,코로나
,5.8766779,NaN,NaN,-0.691358024691358,0.781893004115226,NaN,NaN,NaN,NaN,NaN,NaN,,,NaN,NaN,NaN,NaN,NaN,NaN,NaN,NaN,NaN,NaN,NaN,,,NaN,NaN,NaN,NaN,NaN,,NaN,NaN,NaN,,,NaN,,,NaN,NaN,NaN,,NaN,NaN,NaN,NaN,NaN,NaN,NaN,4,26,여자,yes,yes,yes,yes,no,2022-11-22_12h26.45.095,Main,2022.2.4,59.5453238164227
NaN,,NaN,,,NaN,NaN,,,,NaN,,,,,NaN,,,0,0,0,0,NaN,NaN,NaN,NaN,3,0,3,0,NaN,NaN,NaN,NaN,NaN,NaN,NaN,NaN,NaN,NaN,NaN,NaN,NaN,NaN,NaN,NaN,NaN,NaN,NaN,NaN,NaN,NaN,NaN,NaN,NaN,NaN,NaN,NaN,NaN,NaN,NaN,NaN,NaN,NaN,NaN,NaN,NaN,NaN,NaN,NaN,NaN,NaN,NaN,NaN,NaN,NaN,NaN,NaN,30,bhc,7.35029960000008,NaN,NaN,-0.847736625514403,0.621399176954732,NaN,NaN,NaN,NaN,NaN,NaN,,,NaN,NaN,NaN,NaN,NaN,NaN,NaN,NaN,NaN,NaN,NaN,,,NaN,NaN,NaN,NaN,NaN,,NaN,NaN,NaN,,,NaN,,,NaN,NaN,NaN,,NaN,NaN,NaN,NaN,NaN,NaN,NaN,4,26,여자,yes,yes,yes,yes,no,2022-11-22_12h26.45.095,Main,2022.2.4,59.5453238164227
1,넌 교활해,5,Orange,B,2.33333333333333,2.13333333333333,ScrollUp,ScrollDown,Orange.png,NaN,,,,,NaN,,,NaN,NaN,NaN,NaN,NaN,NaN,NaN,NaN,NaN,NaN,NaN,NaN,0,0,0,0,NaN,NaN,NaN,NaN,NaN,NaN,NaN,NaN,0,0,0,0,0,0,0,0,NaN,NaN,NaN,NaN,NaN,NaN,NaN,NaN,NaN,NaN,NaN,NaN,NaN,NaN,NaN,NaN,NaN,NaN,NaN,NaN,NaN,NaN,NaN,NaN,NaN,NaN,NaN,NaN,NaN,,NaN,NaN,NaN,NaN,NaN,318.1483955,318.1483955,318.1483955,318.1483955,1.85185185185185,1.68639139999982,ScrollUp,정답,319.7907492,319.7907492,320.2751267,320.8340798,NaN,NaN,NaN,NaN,NaN,NaN,NaN,,,NaN,NaN,NaN,NaN,NaN,,NaN,NaN,NaN,,,NaN,,,NaN,NaN,NaN,,NaN,NaN,NaN,NaN,NaN,NaN,NaN,4,26,여자,yes,yes,yes,yes,no,2022-11-22_12h26.45.095,Main,2022.2.4,59.5453238164227
2,넌 슬기로워,2,Green,A,6.16666666666667,4.1,ScrollDown,ScrollUp,Green.png,NaN,,,,,NaN,,,NaN,NaN,NaN,NaN,NaN,NaN,NaN,NaN,NaN,NaN,NaN,NaN,0,0,0,0,NaN,NaN,NaN,NaN,NaN,NaN,NaN,NaN,0,0,0,0,0,1,1,1,NaN,NaN,NaN,NaN,NaN,NaN,NaN,NaN,NaN,NaN,NaN,NaN,NaN,NaN,NaN,NaN,NaN,NaN,NaN,NaN,NaN,NaN,NaN,NaN,NaN,NaN,NaN,NaN,NaN,,NaN,NaN,NaN,NaN,NaN,320.8340798,320.8340798,320.8340798,320.8340798,1.03086419753086,1.16847770000004,ScrollDown,정답,321.9544278,321.9544278,322.4387686,322.9662394,NaN,NaN,NaN,NaN,NaN,NaN,NaN,,,NaN,NaN,NaN,NaN,NaN,,NaN,NaN,NaN,,,NaN,,,NaN,NaN,NaN,,NaN,NaN,NaN,NaN,NaN,NaN,NaN,4,26,여자,yes,yes,yes,yes,no,2022-11-22_12h26.45.095,Main,2022.2.4,59.5453238164227
3,나를 보내줘,6,Green,A,0,0,ScrollUp,ScrollDown,Green.png,NaN,,,,,NaN,,,NaN,NaN,NaN,NaN,NaN,NaN,NaN,NaN,NaN,NaN,NaN,NaN,0,0,0,0,NaN,NaN,NaN,NaN,NaN,NaN,NaN,NaN,0,0,0,0,0,2,2,2,NaN,NaN,NaN,NaN,NaN,NaN,NaN,NaN,NaN,NaN,NaN,NaN,NaN,NaN,NaN,NaN,NaN,NaN,NaN,NaN,NaN,NaN,NaN,NaN,NaN,NaN,NaN,NaN,NaN,,NaN,NaN,NaN,NaN,NaN,322.9662394,322.9662394,322.9662394,322.9662394,1.15432098765432,0.770006700000067,ScrollDown,오답,323.7250145,323.7250145,324.2092133,324.7551718,NaN,NaN,NaN,NaN,NaN,NaN,NaN,,,NaN,NaN,NaN,NaN,NaN,,NaN,NaN,NaN,,,NaN,,,NaN,NaN,NaN,,NaN,NaN,NaN,NaN,NaN,NaN,NaN,4,26,여자,yes,yes,yes,yes,no,2022-11-22_12h26.45.095,Main,2022.2.4,59.5453238164227
4,나를 데려가줘,6,Orange,B,0,0,ScrollDown,ScrollUp,Orange.png,NaN,,,,,NaN,,,NaN,NaN,NaN,NaN,NaN,NaN,NaN,NaN,NaN,NaN,NaN,NaN,0,0,0,0,NaN,NaN,NaN,NaN,NaN,NaN,NaN,NaN,0,0,0,0,0,3,3,3,NaN,NaN,NaN,NaN,NaN,NaN,NaN,NaN,NaN,NaN,NaN,NaN,NaN,NaN,NaN,NaN,NaN,NaN,NaN,NaN,NaN,NaN,NaN,NaN,NaN,NaN,NaN,NaN,NaN,,NaN,NaN,NaN,NaN,NaN,324.7551718,324.7551718,324.7551718,324.7551718,1.82716049382716,2.24293050000006,ScrollUp,오답,326.9627213,326.9627213,327.4463126,327.9689696,NaN,NaN,NaN,NaN,NaN,NaN,NaN,,,NaN,NaN,NaN,NaN,NaN,,NaN,NaN,NaN,,,NaN,,,NaN,NaN,NaN,,NaN,NaN,NaN,NaN,NaN,NaN,NaN,4,26,여자,yes,yes,yes,yes,no,2022-11-22_12h26.45.095,Main,2022.2.4,59.5453238164227
1,넌 교활해,5,Orange,B,2.33333333333333,2.13333333333333,ScrollUp,ScrollDown,Orange.png,NaN,,,,,NaN,,,NaN,NaN,NaN,NaN,NaN,NaN,NaN,NaN,NaN,NaN,NaN,NaN,0,0,0,0,NaN,NaN,NaN,NaN,NaN,NaN,NaN,NaN,0,0,0,0,1,0,4,0,NaN,NaN,NaN,NaN,NaN,NaN,NaN,NaN,NaN,NaN,NaN,NaN,NaN,NaN,NaN,NaN,NaN,NaN,NaN,NaN,NaN,NaN,NaN,NaN,NaN,NaN,NaN,NaN,NaN,,NaN,NaN,NaN,NaN,NaN,327.9689696,327.9689696,327.9689696,327.9689696,2,1.87892549999992,ScrollUp,정답,329.8398368,329.8398368,330.325135,330.8660289,NaN,NaN,NaN,NaN,NaN,NaN,NaN,,,NaN,NaN,NaN,NaN,NaN,,NaN,NaN,NaN,,,NaN,,,NaN,NaN,NaN,,NaN,NaN,NaN,NaN,NaN,NaN,NaN,4,26,여자,yes,yes,yes,yes,no,2022-11-22_12h26.45.095,Main,2022.2.4,59.5453238164227
2,넌 슬기로워,2,Green,A,6.16666666666667,4.1,ScrollDown,ScrollUp,Green.png,NaN,,,,,NaN,,,NaN,NaN,NaN,NaN,NaN,NaN,NaN,NaN,NaN,NaN,NaN,NaN,0,0,0,0,NaN,NaN,NaN,NaN,NaN,NaN,NaN,NaN,0,0,0,0,1,1,5,1,NaN,NaN,NaN,NaN,NaN,NaN,NaN,NaN,NaN,NaN,NaN,NaN,NaN,NaN,NaN,NaN,NaN,NaN,NaN,NaN,NaN,NaN,NaN,NaN,NaN,NaN,NaN,NaN,NaN,,NaN,NaN,NaN,NaN,NaN,330.8660289,330.8660289,330.8660289,330.8660289,1,1.79356280000002,ScrollDown,정답,332.6302685,332.6302685,333.1147197,333.6340357,NaN,NaN,NaN,NaN,NaN,NaN,NaN,,,NaN,NaN,NaN,NaN,NaN,,NaN,NaN,NaN,,,NaN,,,NaN,NaN,NaN,,NaN,NaN,NaN,NaN,NaN,NaN,NaN,4,26,여자,yes,yes,yes,yes,no,2022-11-22_12h26.45.095,Main,2022.2.4,59.5453238164227
3,나를 보내줘,6,Green,A,0,0,ScrollUp,ScrollDown,Green.png,NaN,,,,,NaN,,,NaN,NaN,NaN,NaN,NaN,NaN,NaN,NaN,NaN,NaN,NaN,NaN,0,0,0,0,NaN,NaN,NaN,NaN,NaN,NaN,NaN,NaN,0,0,0,0,1,2,6,2,NaN,NaN,NaN,NaN,NaN,NaN,NaN,NaN,NaN,NaN,NaN,NaN,NaN,NaN,NaN,NaN,NaN,NaN,NaN,NaN,NaN,NaN,NaN,NaN,NaN,NaN,NaN,NaN,NaN,,NaN,NaN,NaN,NaN,NaN,333.6340357,333.6340357,333.6340357,333.6340357,1.85648148148148,1.81157409999992,ScrollUp,정답,335.4372325,335.4372325,335.9220159,336.465228,NaN,NaN,NaN,NaN,NaN,NaN,NaN,,,NaN,NaN,NaN,NaN,NaN,,NaN,NaN,NaN,,,NaN,,,NaN,NaN,NaN,,NaN,NaN,NaN,NaN,NaN,NaN,NaN,4,26,여자,yes,yes,yes,yes,no,2022-11-22_12h26.45.095,Main,2022.2.4,59.5453238164227
4,나를 데려가줘,6,Orange,B,0,0,ScrollDown,ScrollUp,Orange.png,NaN,,,,,NaN,,,NaN,NaN,NaN,NaN,NaN,NaN,NaN,NaN,NaN,NaN,NaN,NaN,0,0,0,0,NaN,NaN,NaN,NaN,NaN,NaN,NaN,NaN,0,0,0,0,1,3,7,3,NaN,NaN,NaN,NaN,NaN,NaN,NaN,NaN,NaN,NaN,NaN,NaN,NaN,NaN,NaN,NaN,NaN,NaN,NaN,NaN,NaN,NaN,NaN,NaN,NaN,NaN,NaN,NaN,NaN,,NaN,NaN,NaN,NaN,NaN,336.465228,336.465228,336.465228,336.465228,1,1.01358049999999,ScrollDown,정답,337.4464995,337.4464995,337.9308507,338.4545428,NaN,NaN,NaN,NaN,NaN,NaN,NaN,,,NaN,NaN,NaN,NaN,NaN,,NaN,NaN,NaN,,,NaN,,,NaN,NaN,NaN,,NaN,NaN,NaN,NaN,NaN,NaN,NaN,4,26,여자,yes,yes,yes,yes,no,2022-11-22_12h26.45.095,Main,2022.2.4,59.5453238164227
1,넌 교활해,5,Orange,B,2.33333333333333,2.13333333333333,ScrollUp,ScrollDown,Orange.png,NaN,,,,,NaN,,,NaN,NaN,NaN,NaN,NaN,NaN,NaN,NaN,NaN,NaN,NaN,NaN,0,0,0,0,NaN,NaN,NaN,NaN,NaN,NaN,NaN,NaN,0,0,0,0,2,0,8,0,NaN,NaN,NaN,NaN,NaN,NaN,NaN,NaN,NaN,NaN,NaN,NaN,NaN,NaN,NaN,NaN,NaN,NaN,NaN,NaN,NaN,NaN,NaN,NaN,NaN,NaN,NaN,NaN,NaN,,NaN,NaN,NaN,NaN,NaN,338.4545428,338.4545428,338.4545428,338.4545428,1.66358024691358,1.09644720000006,ScrollUp,정답,339.5383066,339.5383066,340.0231989,340.562221,NaN,NaN,NaN,NaN,NaN,NaN,NaN,,,NaN,NaN,NaN,NaN,NaN,,NaN,NaN,NaN,,,NaN,,,NaN,NaN,NaN,,NaN,NaN,NaN,NaN,NaN,NaN,NaN,4,26,여자,yes,yes,yes,yes,no,2022-11-22_12h26.45.095,Main,2022.2.4,59.5453238164227
2,넌 슬기로워,2,Green,A,6.16666666666667,4.1,ScrollDown,ScrollUp,Green.png,NaN,,,,,NaN,,,NaN,NaN,NaN,NaN,NaN,NaN,NaN,NaN,NaN,NaN,NaN,NaN,0,0,0,0,NaN,NaN,NaN,NaN,NaN,NaN,NaN,NaN,0,0,0,0,2,1,9,1,NaN,NaN,NaN,NaN,NaN,NaN,NaN,NaN,NaN,NaN,NaN,NaN,NaN,NaN,NaN,NaN,NaN,NaN,NaN,NaN,NaN,NaN,NaN,NaN,NaN,NaN,NaN,NaN,NaN,,NaN,NaN,NaN,NaN,NaN,340.562221,340.562221,340.562221,340.562221,1.12037037037037,0.957248199999867,ScrollDown,정답,341.4914609,341.4914609,341.9763079,342.4994927,NaN,NaN,NaN,NaN,NaN,NaN,NaN,,,NaN,NaN,NaN,NaN,NaN,,NaN,NaN,NaN,,,NaN,,,NaN,NaN,NaN,,NaN,NaN,NaN,NaN,NaN,NaN,NaN,4,26,여자,yes,yes,yes,yes,no,2022-11-22_12h26.45.095,Main,2022.2.4,59.5453238164227
3,나를 보내줘,6,Green,A,0,0,ScrollUp,ScrollDown,Green.png,NaN,,,,,NaN,,,NaN,NaN,NaN,NaN,NaN,NaN,NaN,NaN,NaN,NaN,NaN,NaN,0,0,0,0,NaN,NaN,NaN,NaN,NaN,NaN,NaN,NaN,0,0,0,0,2,2,10,2,NaN,NaN,NaN,NaN,NaN,NaN,NaN,NaN,NaN,NaN,NaN,NaN,NaN,NaN,NaN,NaN,NaN,NaN,NaN,NaN,NaN,NaN,NaN,NaN,NaN,NaN,NaN,NaN,NaN,,NaN,NaN,NaN,NaN,NaN,342.4994927,342.4994927,342.4994927,342.4994927,1.86111111111111,1.23727540000004,ScrollUp,정답,343.7254397,343.7254397,344.2095052,344.7528125,NaN,NaN,NaN,NaN,NaN,NaN,NaN,,,NaN,NaN,NaN,NaN,NaN,,NaN,NaN,NaN,,,NaN,,,NaN,NaN,NaN,,NaN,NaN,NaN,NaN,NaN,NaN,NaN,4,26,여자,yes,yes,yes,yes,no,2022-11-22_12h26.45.095,Main,2022.2.4,59.5453238164227
4,나를 데려가줘,6,Orange,B,0,0,ScrollDown,ScrollUp,Orange.png,NaN,,,,,NaN,,,NaN,NaN,NaN,NaN,NaN,NaN,NaN,NaN,NaN,NaN,NaN,NaN,0,0,0,0,NaN,NaN,NaN,NaN,NaN,NaN,NaN,NaN,0,0,0,0,2,3,11,3,NaN,NaN,NaN,NaN,NaN,NaN,NaN,NaN,NaN,NaN,NaN,NaN,NaN,NaN,NaN,NaN,NaN,NaN,NaN,NaN,NaN,NaN,NaN,NaN,NaN,NaN,NaN,NaN,NaN,,NaN,NaN,NaN,NaN,NaN,344.7528125,344.7528125,344.7528125,344.7528125,1,1.07678069999997,ScrollDown,정답,345.7979845,345.7979845,346.2818453,346.7830386,NaN,NaN,NaN,NaN,NaN,NaN,NaN,,,NaN,NaN,NaN,NaN,NaN,,NaN,NaN,NaN,,,NaN,,,NaN,NaN,NaN,,NaN,NaN,NaN,NaN,NaN,NaN,NaN,4,26,여자,yes,yes,yes,yes,no,2022-11-22_12h26.45.095,Main,2022.2.4,59.5453238164227
1,넌 따뜻해,1,Orange,B,6.08333333333333,5.6,ScrollUp,ScrollDown,Orange.png,1,Positive,Incongruent,,,NaN,,,NaN,NaN,NaN,NaN,NaN,NaN,NaN,NaN,NaN,NaN,NaN,NaN,0,0,0,0,NaN,NaN,NaN,NaN,NaN,NaN,NaN,NaN,0,0,0,0,NaN,NaN,NaN,NaN,0,0,0,0,0,0,0,0,NaN,NaN,NaN,NaN,NaN,NaN,NaN,NaN,NaN,NaN,NaN,NaN,NaN,NaN,NaN,NaN,NaN,NaN,NaN,NaN,NaN,,NaN,NaN,NaN,NaN,NaN,NaN,NaN,NaN,NaN,NaN,NaN,,,NaN,NaN,NaN,NaN,355.7528841,355.7528841,355.7528841,355.7528841,355.7528841,1.12962962962963,1.09608490000005,ScrollDown,오답,356.7941115,356.7941115,357.2783646,357.8218933,NaN,,NaN,NaN,NaN,,,NaN,,,NaN,NaN,NaN,,NaN,NaN,NaN,NaN,NaN,NaN,NaN,4,26,여자,yes,yes,yes,yes,no,2022-11-22_12h26.45.095,Main,2022.2.4,59.5453238164227
2,넌 기품있어,2,Orange,B,5.79166666666667,4.5,ScrollUp,ScrollDown,Orange.png,1,Positive,Incongruent,,,NaN,,,NaN,NaN,NaN,NaN,NaN,NaN,NaN,NaN,NaN,NaN,NaN,NaN,0,0,0,0,NaN,NaN,NaN,NaN,NaN,NaN,NaN,NaN,0,0,0,0,NaN,NaN,NaN,NaN,0,0,0,0,0,1,1,1,NaN,NaN,NaN,NaN,NaN,NaN,NaN,NaN,NaN,NaN,NaN,NaN,NaN,NaN,NaN,NaN,NaN,NaN,NaN,NaN,NaN,,NaN,NaN,NaN,NaN,NaN,NaN,NaN,NaN,NaN,NaN,NaN,,,NaN,NaN,NaN,NaN,357.8218933,357.8218933,357.8218933,357.8218933,357.8218933,1.66820987654321,0.865808800000195,ScrollUp,정답,358.6622696,358.6622696,359.1469165,359.7108085,NaN,,NaN,NaN,NaN,,,NaN,,,NaN,NaN,NaN,,NaN,NaN,NaN,NaN,NaN,NaN,NaN,4,26,여자,yes,yes,yes,yes,no,2022-11-22_12h26.45.095,Main,2022.2.4,59.5453238164227
3,나를 보내줘,6,Green,A,0,0,ScrollUp,ScrollDown,Green.png,1,NonTarget,NonTarget,,,NaN,,,NaN,NaN,NaN,NaN,NaN,NaN,NaN,NaN,NaN,NaN,NaN,NaN,0,0,0,0,NaN,NaN,NaN,NaN,NaN,NaN,NaN,NaN,0,0,0,0,NaN,NaN,NaN,NaN,0,0,0,0,0,2,2,2,NaN,NaN,NaN,NaN,NaN,NaN,NaN,NaN,NaN,NaN,NaN,NaN,NaN,NaN,NaN,NaN,NaN,NaN,NaN,NaN,NaN,,NaN,NaN,NaN,NaN,NaN,NaN,NaN,NaN,NaN,NaN,NaN,,,NaN,NaN,NaN,NaN,359.7108085,359.7108085,359.7108085,359.7108085,359.7108085,1.08796296296296,0.91454879999992,ScrollDown,오답,360.5760195,360.5760195,361.0608153,361.6056135,NaN,,NaN,NaN,NaN,,,NaN,,,NaN,NaN,NaN,,NaN,NaN,NaN,NaN,NaN,NaN,NaN,4,26,여자,yes,yes,yes,yes,no,2022-11-22_12h26.45.095,Main,2022.2.4,59.5453238164227
4,넌 수동적이야,4,Green,A,2.83333333333333,2.93333333333333,ScrollDown,ScrollUp,Green.png,1,Negative,Incongruent,,,NaN,,,NaN,NaN,NaN,NaN,NaN,NaN,NaN,NaN,NaN,NaN,NaN,NaN,0,0,0,0,NaN,NaN,NaN,NaN,NaN,NaN,NaN,NaN,0,0,0,0,NaN,NaN,NaN,NaN,0,0,0,0,0,3,3,3,NaN,NaN,NaN,NaN,NaN,NaN,NaN,NaN,NaN,NaN,NaN,NaN,NaN,NaN,NaN,NaN,NaN,NaN,NaN,NaN,NaN,,NaN,NaN,NaN,NaN,NaN,NaN,NaN,NaN,NaN,NaN,NaN,,,NaN,NaN,NaN,NaN,361.6056135,361.6056135,361.6056135,361.6056135,361.6056135,2,1.64651919999983,ScrollUp,오답,363.2193305,363.2193305,363.7041024,364.2640918,NaN,,NaN,NaN,NaN,,,NaN,,,NaN,NaN,NaN,,NaN,NaN,NaN,NaN,NaN,NaN,NaN,4,26,여자,yes,yes,yes,yes,no,2022-11-22_12h26.45.095,Main,2022.2.4,59.5453238164227
5,넌 사심이 없어,3,Orange,B,4.91666666666667,4.33333333333333,ScrollUp,ScrollDown,Orange.png,1,Neutral,Neutral,,,NaN,,,NaN,NaN,NaN,NaN,NaN,NaN,NaN,NaN,NaN,NaN,NaN,NaN,0,0,0,0,NaN,NaN,NaN,NaN,NaN,NaN,NaN,NaN,0,0,0,0,NaN,NaN,NaN,NaN,0,0,0,0,0,4,4,4,NaN,NaN,NaN,NaN,NaN,NaN,NaN,NaN,NaN,NaN,NaN,NaN,NaN,NaN,NaN,NaN,NaN,NaN,NaN,NaN,NaN,,NaN,NaN,NaN,NaN,NaN,NaN,NaN,NaN,NaN,NaN,NaN,,,NaN,NaN,NaN,NaN,364.2640918,364.2640918,364.2640918,364.2640918,364.2640918,1,2.5107289,ScrollDown,오답,366.7274386,366.7274386,367.211672,367.7690748,NaN,,NaN,NaN,NaN,,,NaN,,,NaN,NaN,NaN,,NaN,NaN,NaN,NaN,NaN,NaN,NaN,4,26,여자,yes,yes,yes,yes,no,2022-11-22_12h26.45.095,Main,2022.2.4,59.5453238164227
6,넌 헤퍼,5,Green,A,2.45833333333333,2.23333333333333,ScrollDown,ScrollUp,Green.png,1,Negative,Incongruent,,,NaN,,,NaN,NaN,NaN,NaN,NaN,NaN,NaN,NaN,NaN,NaN,NaN,NaN,0,0,0,0,NaN,NaN,NaN,NaN,NaN,NaN,NaN,NaN,0,0,0,0,NaN,NaN,NaN,NaN,0,0,0,0,0,5,5,5,NaN,NaN,NaN,NaN,NaN,NaN,NaN,NaN,NaN,NaN,NaN,NaN,NaN,NaN,NaN,NaN,NaN,NaN,NaN,NaN,NaN,,NaN,NaN,NaN,NaN,NaN,NaN,NaN,NaN,NaN,NaN,NaN,,,NaN,NaN,NaN,NaN,367.7690748,367.7690748,367.7690748,367.7690748,367.7690748,1.6466049382716,1.71297839999988,ScrollUp,오답,369.4371482,369.4371482,369.9215955,370.4582685,NaN,,NaN,NaN,NaN,,,NaN,,,NaN,NaN,NaN,,NaN,NaN,NaN,NaN,NaN,NaN,NaN,4,26,여자,yes,yes,yes,yes,no,2022-11-22_12h26.45.095,Main,2022.2.4,59.5453238164227
7,넌 말쑥해,3,Green,A,4.83333333333333,4.33333333333333,ScrollDown,ScrollUp,Green.png,1,Neutral,Neutral,,,NaN,,,NaN,NaN,NaN,NaN,NaN,NaN,NaN,NaN,NaN,NaN,NaN,NaN,0,0,0,0,NaN,NaN,NaN,NaN,NaN,NaN,NaN,NaN,0,0,0,0,NaN,NaN,NaN,NaN,0,0,0,0,0,6,6,6,NaN,NaN,NaN,NaN,NaN,NaN,NaN,NaN,NaN,NaN,NaN,NaN,NaN,NaN,NaN,NaN,NaN,NaN,NaN,NaN,NaN,,NaN,NaN,NaN,NaN,NaN,NaN,NaN,NaN,NaN,NaN,NaN,,,NaN,NaN,NaN,NaN,370.4582685,370.4582685,370.4582685,370.4582685,370.4582685,1,2.13490749999983,ScrollDown,정답,372.5719674,372.5719674,373.0570444,373.6199736,NaN,,NaN,NaN,NaN,,,NaN,,,NaN,NaN,NaN,,NaN,NaN,NaN,NaN,NaN,NaN,NaN,4,26,여자,yes,yes,yes,yes,no,2022-11-22_12h26.45.095,Main,2022.2.4,59.5453238164227
8,넌 투덜거려,5,Orange,B,2.54166666666667,2.26666666666667,ScrollUp,ScrollDown,Orange.png,1,Negative,Congruent,,,NaN,,,NaN,NaN,NaN,NaN,NaN,NaN,NaN,NaN,NaN,NaN,NaN,NaN,0,0,0,0,NaN,NaN,NaN,NaN,NaN,NaN,NaN,NaN,0,0,0,0,NaN,NaN,NaN,NaN,0,0,0,0,0,7,7,7,NaN,NaN,NaN,NaN,NaN,NaN,NaN,NaN,NaN,NaN,NaN,NaN,NaN,NaN,NaN,NaN,NaN,NaN,NaN,NaN,NaN,,NaN,NaN,NaN,NaN,NaN,NaN,NaN,NaN,NaN,NaN,NaN,,,NaN,NaN,NaN,NaN,373.6199736,373.6199736,373.6199736,373.6199736,373.6199736,1.68055555555556,0.851760400000103,ScrollUp,정답,374.4214001,374.4214001,374.905482,375.462465,NaN,,NaN,NaN,NaN,,,NaN,,,NaN,NaN,NaN,,NaN,NaN,NaN,NaN,NaN,NaN,NaN,4,26,여자,yes,yes,yes,yes,no,2022-11-22_12h26.45.095,Main,2022.2.4,59.5453238164227
9,넌 적극적이야,1,Green,A,5.70833333333333,5.53333333333333,ScrollDown,ScrollUp,Green.png,1,Positive,Congruent,,,NaN,,,NaN,NaN,NaN,NaN,NaN,NaN,NaN,NaN,NaN,NaN,NaN,NaN,0,0,0,0,NaN,NaN,NaN,NaN,NaN,NaN,NaN,NaN,0,0,0,0,NaN,NaN,NaN,NaN,0,0,0,0,0,8,8,8,NaN,NaN,NaN,NaN,NaN,NaN,NaN,NaN,NaN,NaN,NaN,NaN,NaN,NaN,NaN,NaN,NaN,NaN,NaN,NaN,NaN,,NaN,NaN,NaN,NaN,NaN,NaN,NaN,NaN,NaN,NaN,NaN,,,NaN,NaN,NaN,NaN,375.462465,375.462465,375.462465,375.462465,375.462465,1.02777777777778,1.3403080999999,ScrollDown,정답,376.7575248,376.7575248,377.2423342,377.8025818,NaN,,NaN,NaN,NaN,,,NaN,,,NaN,NaN,NaN,,NaN,NaN,NaN,NaN,NaN,NaN,NaN,4,26,여자,yes,yes,yes,yes,no,2022-11-22_12h26.45.095,Main,2022.2.4,59.5453238164227
10,넌 재미없어,4,Orange,B,2.625,2.96666666666667,ScrollUp,ScrollDown,Orange.png,1,Negative,Congruent,,,NaN,,,NaN,NaN,NaN,NaN,NaN,NaN,NaN,NaN,NaN,NaN,NaN,NaN,0,0,0,0,NaN,NaN,NaN,NaN,NaN,NaN,NaN,NaN,0,0,0,0,NaN,NaN,NaN,NaN,0,0,0,0,0,9,9,9,NaN,NaN,NaN,NaN,NaN,NaN,NaN,NaN,NaN,NaN,NaN,NaN,NaN,NaN,NaN,NaN,NaN,NaN,NaN,NaN,NaN,,NaN,NaN,NaN,NaN,NaN,NaN,NaN,NaN,NaN,NaN,NaN,,,NaN,NaN,NaN,NaN,377.8025818,377.8025818,377.8025818,377.8025818,377.8025818,1.65277777777778,0.665598499999987,ScrollUp,정답,378.4203472,378.4203472,378.9054214,379.465112,NaN,,NaN,NaN,NaN,,,NaN,,,NaN,NaN,NaN,,NaN,NaN,NaN,NaN,NaN,NaN,NaN,4,26,여자,yes,yes,yes,yes,no,2022-11-22_12h26.45.095,Main,2022.2.4,59.5453238164227
11,넌 명석해,2,Green,A,5.875,4.03333333333333,ScrollDown,ScrollUp,Green.png,1,Positive,Congruent,,,NaN,,,NaN,NaN,NaN,NaN,NaN,NaN,NaN,NaN,NaN,NaN,NaN,NaN,0,0,0,0,NaN,NaN,NaN,NaN,NaN,NaN,NaN,NaN,0,0,0,0,NaN,NaN,NaN,NaN,0,0,0,0,0,10,10,10,NaN,NaN,NaN,NaN,NaN,NaN,NaN,NaN,NaN,NaN,NaN,NaN,NaN,NaN,NaN,NaN,NaN,NaN,NaN,NaN,NaN,,NaN,NaN,NaN,NaN,NaN,NaN,NaN,NaN,NaN,NaN,NaN,,,NaN,NaN,NaN,NaN,379.465112,379.465112,379.465112,379.465112,379.465112,1.21141975308642,0.768964099999948,ScrollDown,정답,380.1908889,380.1908889,380.6756037,381.2329517,NaN,,NaN,NaN,NaN,,,NaN,,,NaN,NaN,NaN,,NaN,NaN,NaN,NaN,NaN,NaN,NaN,4,26,여자,yes,yes,yes,yes,no,2022-11-22_12h26.45.095,Main,2022.2.4,59.5453238164227
12,나를 데려가줘,6,Orange,B,0,0,ScrollDown,ScrollUp,Orange.png,1,NonTarget,NonTarget,,,NaN,,,NaN,NaN,NaN,NaN,NaN,NaN,NaN,NaN,NaN,NaN,NaN,NaN,0,0,0,0,NaN,NaN,NaN,NaN,NaN,NaN,NaN,NaN,0,0,0,0,NaN,NaN,NaN,NaN,0,0,0,0,0,11,11,11,NaN,NaN,NaN,NaN,NaN,NaN,NaN,NaN,NaN,NaN,NaN,NaN,NaN,NaN,NaN,NaN,NaN,NaN,NaN,NaN,NaN,,NaN,NaN,NaN,NaN,NaN,NaN,NaN,NaN,NaN,NaN,NaN,,,NaN,NaN,NaN,NaN,381.2329517,381.2329517,381.2329517,381.2329517,381.2329517,1.60648148148148,0.665376200000082,ScrollUp,오답,381.8564079,381.8564079,382.3405271,382.8974694,NaN,,NaN,NaN,NaN,,,NaN,,,NaN,NaN,NaN,,NaN,NaN,NaN,NaN,NaN,NaN,NaN,4,26,여자,yes,yes,yes,yes,no,2022-11-22_12h26.45.095,Main,2022.2.4,59.5453238164227
13,넌 소심해,4,Green,A,3,3.1,ScrollDown,ScrollUp,Green.png,1,Negative,Incongruent,,,NaN,,,NaN,NaN,NaN,NaN,NaN,NaN,NaN,NaN,NaN,NaN,NaN,NaN,0,0,0,0,NaN,NaN,NaN,NaN,NaN,NaN,NaN,NaN,0,0,0,0,NaN,NaN,NaN,NaN,0,0,0,0,0,12,12,12,NaN,NaN,NaN,NaN,NaN,NaN,NaN,NaN,NaN,NaN,NaN,NaN,NaN,NaN,NaN,NaN,NaN,NaN,NaN,NaN,NaN,,NaN,NaN,NaN,NaN,NaN,NaN,NaN,NaN,NaN,NaN,NaN,,,NaN,NaN,NaN,NaN,382.8974694,382.8974694,382.8974694,382.8974694,382.8974694,1.25308641975309,0.760954999999967,ScrollDown,정답,383.6180353,383.6180353,384.1038375,384.6377739,NaN,,NaN,NaN,NaN,,,NaN,,,NaN,NaN,NaN,,NaN,NaN,NaN,NaN,NaN,NaN,NaN,4,26,여자,yes,yes,yes,yes,no,2022-11-22_12h26.45.095,Main,2022.2.4,59.5453238164227
14,넌 합리적이야,2,Green,A,5.58333333333333,4.73333333333333,ScrollDown,ScrollUp,Green.png,1,Positive,Congruent,,,NaN,,,NaN,NaN,NaN,NaN,NaN,NaN,NaN,NaN,NaN,NaN,NaN,NaN,0,0,0,0,NaN,NaN,NaN,NaN,NaN,NaN,NaN,NaN,0,0,0,0,NaN,NaN,NaN,NaN,0,0,0,0,0,13,13,13,NaN,NaN,NaN,NaN,NaN,NaN,NaN,NaN,NaN,NaN,NaN,NaN,NaN,NaN,NaN,NaN,NaN,NaN,NaN,NaN,NaN,,NaN,NaN,NaN,NaN,NaN,NaN,NaN,NaN,NaN,NaN,NaN,,,NaN,NaN,NaN,NaN,384.6377739,384.6377739,384.6377739,384.6377739,384.6377739,1.23456790123457,0.658598600000005,ScrollDown,정답,385.2747226,385.2747226,385.7589392,386.3168975,NaN,,NaN,NaN,NaN,,,NaN,,,NaN,NaN,NaN,,NaN,NaN,NaN,NaN,NaN,NaN,NaN,4,26,여자,yes,yes,yes,yes,no,2022-11-22_12h26.45.095,Main,2022.2.4,59.5453238164227
15,넌 무자비해,5,Orange,B,2.33333333333333,2.1,ScrollUp,ScrollDown,Orange.png,1,Negative,Congruent,,,NaN,,,NaN,NaN,NaN,NaN,NaN,NaN,NaN,NaN,NaN,NaN,NaN,NaN,0,0,0,0,NaN,NaN,NaN,NaN,NaN,NaN,NaN,NaN,0,0,0,0,NaN,NaN,NaN,NaN,0,0,0,0,0,14,14,14,NaN,NaN,NaN,NaN,NaN,NaN,NaN,NaN,NaN,NaN,NaN,NaN,NaN,NaN,NaN,NaN,NaN,NaN,NaN,NaN,NaN,,NaN,NaN,NaN,NaN,NaN,NaN,NaN,NaN,NaN,NaN,NaN,,,NaN,NaN,NaN,NaN,386.3168975,386.3168975,386.3168975,386.3168975,386.3168975,1.64506172839506,0.667106500000045,ScrollUp,정답,386.9417205,386.9417205,387.4256686,387.9777656,NaN,,NaN,NaN,NaN,,,NaN,,,NaN,NaN,NaN,,NaN,NaN,NaN,NaN,NaN,NaN,NaN,4,26,여자,yes,yes,yes,yes,no,2022-11-22_12h26.45.095,Main,2022.2.4,59.5453238164227
16,나를 보내줘,6,Green,A,0,0,ScrollUp,ScrollDown,Green.png,1,NonTarget,NonTarget,,,NaN,,,NaN,NaN,NaN,NaN,NaN,NaN,NaN,NaN,NaN,NaN,NaN,NaN,0,0,0,0,NaN,NaN,NaN,NaN,NaN,NaN,NaN,NaN,0,0,0,0,NaN,NaN,NaN,NaN,0,0,0,0,0,15,15,15,NaN,NaN,NaN,NaN,NaN,NaN,NaN,NaN,NaN,NaN,NaN,NaN,NaN,NaN,NaN,NaN,NaN,NaN,NaN,NaN,NaN,,NaN,NaN,NaN,NaN,NaN,NaN,NaN,NaN,NaN,NaN,NaN,,,NaN,NaN,NaN,NaN,387.9777656,387.9777656,387.9777656,387.9777656,387.9777656,1.28086419753086,0.664915500000006,ScrollDown,오답,388.605012,388.605012,389.089192,389.6494269,NaN,,NaN,NaN,NaN,,,NaN,,,NaN,NaN,NaN,,NaN,NaN,NaN,NaN,NaN,NaN,NaN,4,26,여자,yes,yes,yes,yes,no,2022-11-22_12h26.45.095,Main,2022.2.4,59.5453238164227
17,넌 현실적이야,3,Orange,B,4.60869565217391,4.76666666666667,ScrollUp,ScrollDown,Orange.png,1,Neutral,Neutral,,,NaN,,,NaN,NaN,NaN,NaN,NaN,NaN,NaN,NaN,NaN,NaN,NaN,NaN,0,0,0,0,NaN,NaN,NaN,NaN,NaN,NaN,NaN,NaN,0,0,0,0,NaN,NaN,NaN,NaN,0,0,0,0,0,16,16,16,NaN,NaN,NaN,NaN,NaN,NaN,NaN,NaN,NaN,NaN,NaN,NaN,NaN,NaN,NaN,NaN,NaN,NaN,NaN,NaN,NaN,,NaN,NaN,NaN,NaN,NaN,NaN,NaN,NaN,NaN,NaN,NaN,,,NaN,NaN,NaN,NaN,389.6494269,389.6494269,389.6494269,389.6494269,389.6494269,1.6033950617284,1.96774559999994,ScrollUp,정답,391.5727237,391.5727237,392.0572376,392.58926,NaN,,NaN,NaN,NaN,,,NaN,,,NaN,NaN,NaN,,NaN,NaN,NaN,NaN,NaN,NaN,NaN,4,26,여자,yes,yes,yes,yes,no,2022-11-22_12h26.45.095,Main,2022.2.4,59.5453238164227
18,넌 의리있어,1,Orange,B,5.83333333333333,5.63333333333333,ScrollUp,ScrollDown,Orange.png,1,Positive,Incongruent,,,NaN,,,NaN,NaN,NaN,NaN,NaN,NaN,NaN,NaN,NaN,NaN,NaN,NaN,0,0,0,0,NaN,NaN,NaN,NaN,NaN,NaN,NaN,NaN,0,0,0,0,NaN,NaN,NaN,NaN,0,0,0,0,0,17,17,17,NaN,NaN,NaN,NaN,NaN,NaN,NaN,NaN,NaN,NaN,NaN,NaN,NaN,NaN,NaN,NaN,NaN,NaN,NaN,NaN,NaN,,NaN,NaN,NaN,NaN,NaN,NaN,NaN,NaN,NaN,NaN,NaN,,,NaN,NaN,NaN,NaN,392.58926,392.58926,392.58926,392.58926,392.58926,1.62345679012346,0.781932500000039,ScrollUp,정답,393.3510392,393.3510392,393.8352094,394.4022169,NaN,,NaN,NaN,NaN,,,NaN,,,NaN,NaN,NaN,,NaN,NaN,NaN,NaN,NaN,NaN,NaN,4,26,여자,yes,yes,yes,yes,no,2022-11-22_12h26.45.095,Main,2022.2.4,59.5453238164227
19,넌 신경과민이야,5,Green,A,2.54166666666667,2.16666666666667,ScrollDown,ScrollUp,Green.png,1,Negative,Incongruent,,,NaN,,,NaN,NaN,NaN,NaN,NaN,NaN,NaN,NaN,NaN,NaN,NaN,NaN,0,0,0,0,NaN,NaN,NaN,NaN,NaN,NaN,NaN,NaN,0,0,0,0,NaN,NaN,NaN,NaN,0,0,0,0,0,18,18,18,NaN,NaN,NaN,NaN,NaN,NaN,NaN,NaN,NaN,NaN,NaN,NaN,NaN,NaN,NaN,NaN,NaN,NaN,NaN,NaN,NaN,,NaN,NaN,NaN,NaN,NaN,NaN,NaN,NaN,NaN,NaN,NaN,,,NaN,NaN,NaN,NaN,394.4022169,394.4022169,394.4022169,394.4022169,394.4022169,1.58179012345679,0.870850799999971,ScrollUp,오답,395.2213202,395.2213202,395.705372,396.2391898,NaN,,NaN,NaN,NaN,,,NaN,,,NaN,NaN,NaN,,NaN,NaN,NaN,NaN,NaN,NaN,NaN,4,26,여자,yes,yes,yes,yes,no,2022-11-22_12h26.45.095,Main,2022.2.4,59.5453238164227
20,넌 편안해,1,Green,A,5.91666666666667,5.86666666666667,ScrollDown,ScrollUp,Green.png,1,Positive,Congruent,,,NaN,,,NaN,NaN,NaN,NaN,NaN,NaN,NaN,NaN,NaN,NaN,NaN,NaN,0,0,0,0,NaN,NaN,NaN,NaN,NaN,NaN,NaN,NaN,0,0,0,0,NaN,NaN,NaN,NaN,0,0,0,0,0,19,19,19,NaN,NaN,NaN,NaN,NaN,NaN,NaN,NaN,NaN,NaN,NaN,NaN,NaN,NaN,NaN,NaN,NaN,NaN,NaN,NaN,NaN,,NaN,NaN,NaN,NaN,NaN,NaN,NaN,NaN,NaN,NaN,NaN,,,NaN,NaN,NaN,NaN,396.2391898,396.2391898,396.2391898,396.2391898,396.2391898,1.08641975308642,2.88435879999997,ScrollDown,정답,399.1057027,399.1057027,399.5901147,400.1445826,NaN,,NaN,NaN,NaN,,,NaN,,,NaN,NaN,NaN,,NaN,NaN,NaN,NaN,NaN,NaN,NaN,4,26,여자,yes,yes,yes,yes,no,2022-11-22_12h26.45.095,Main,2022.2.4,59.5453238164227
21,넌 품위있어,2,Orange,B,5.29166666666667,4.46666666666667,ScrollUp,ScrollDown,Orange.png,1,Positive,Incongruent,,,NaN,,,NaN,NaN,NaN,NaN,NaN,NaN,NaN,NaN,NaN,NaN,NaN,NaN,0,0,0,0,NaN,NaN,NaN,NaN,NaN,NaN,NaN,NaN,0,0,0,0,NaN,NaN,NaN,NaN,0,0,0,0,0,20,20,20,NaN,NaN,NaN,NaN,NaN,NaN,NaN,NaN,NaN,NaN,NaN,NaN,NaN,NaN,NaN,NaN,NaN,NaN,NaN,NaN,NaN,,NaN,NaN,NaN,NaN,NaN,NaN,NaN,NaN,NaN,NaN,NaN,,,NaN,NaN,NaN,NaN,400.1445826,400.1445826,400.1445826,400.1445826,400.1445826,1.22685185185185,2.50376089999986,ScrollDown,오답,402.6099643,402.6099643,403.0942824,403.6537546,NaN,,NaN,NaN,NaN,,,NaN,,,NaN,NaN,NaN,,NaN,NaN,NaN,NaN,NaN,NaN,NaN,4,26,여자,yes,yes,yes,yes,no,2022-11-22_12h26.45.095,Main,2022.2.4,59.5453238164227
22,넌 빈틈없어,3,Green,A,4.83333333333333,3.96666666666667,ScrollDown,ScrollUp,Green.png,1,Neutral,Neutral,,,NaN,,,NaN,NaN,NaN,NaN,NaN,NaN,NaN,NaN,NaN,NaN,NaN,NaN,0,0,0,0,NaN,NaN,NaN,NaN,NaN,NaN,NaN,NaN,0,0,0,0,NaN,NaN,NaN,NaN,0,0,0,0,0,21,21,21,NaN,NaN,NaN,NaN,NaN,NaN,NaN,NaN,NaN,NaN,NaN,NaN,NaN,NaN,NaN,NaN,NaN,NaN,NaN,NaN,NaN,,NaN,NaN,NaN,NaN,NaN,NaN,NaN,NaN,NaN,NaN,NaN,,,NaN,NaN,NaN,NaN,403.6537546,403.6537546,403.6537546,403.6537546,403.6537546,1.20987654320988,2.69700179999995,ScrollDown,정답,406.3064643,406.3064643,406.7904556,407.3508268,NaN,,NaN,NaN,NaN,,,NaN,,,NaN,NaN,NaN,,NaN,NaN,NaN,NaN,NaN,NaN,NaN,4,26,여자,yes,yes,yes,yes,no,2022-11-22_12h26.45.095,Main,2022.2.4,59.5453238164227
23,넌 상상력없어,4,Orange,B,2.83333333333333,3.13333333333333,ScrollUp,ScrollDown,Orange.png,1,Negative,Congruent,,,NaN,,,NaN,NaN,NaN,NaN,NaN,NaN,NaN,NaN,NaN,NaN,NaN,NaN,0,0,0,0,NaN,NaN,NaN,NaN,NaN,NaN,NaN,NaN,0,0,0,0,NaN,NaN,NaN,NaN,0,0,0,0,0,22,22,22,NaN,NaN,NaN,NaN,NaN,NaN,NaN,NaN,NaN,NaN,NaN,NaN,NaN,NaN,NaN,NaN,NaN,NaN,NaN,NaN,NaN,,NaN,NaN,NaN,NaN,NaN,NaN,NaN,NaN,NaN,NaN,NaN,,,NaN,NaN,NaN,NaN,407.3508268,407.3508268,407.3508268,407.3508268,407.3508268,1.63734567901235,0.722182100000055,ScrollUp,정답,408.0253921,408.0253921,408.5104017,409.0529538,NaN,,NaN,NaN,NaN,,,NaN,,,NaN,NaN,NaN,,NaN,NaN,NaN,NaN,NaN,NaN,NaN,4,26,여자,yes,yes,yes,yes,no,2022-11-22_12h26.45.095,Main,2022.2.4,59.5453238164227
24,넌 지혜로워,2,Orange,B,6.33333333333333,4.63333333333333,ScrollUp,ScrollDown,Orange.png,1,Positive,Incongruent,,,NaN,,,NaN,NaN,NaN,NaN,NaN,NaN,NaN,NaN,NaN,NaN,NaN,NaN,0,0,0,0,NaN,NaN,NaN,NaN,NaN,NaN,NaN,NaN,0,0,0,0,NaN,NaN,NaN,NaN,0,0,0,0,0,23,23,23,NaN,NaN,NaN,NaN,NaN,NaN,NaN,NaN,NaN,NaN,NaN,NaN,NaN,NaN,NaN,NaN,NaN,NaN,NaN,NaN,NaN,,NaN,NaN,NaN,NaN,NaN,NaN,NaN,NaN,NaN,NaN,NaN,,,NaN,NaN,NaN,NaN,409.0529538,409.0529538,409.0529538,409.0529538,409.0529538,1.70524691358025,1.29887540000004,ScrollUp,정답,410.3210087,410.3210087,410.8057543,411.3663625,NaN,,NaN,NaN,NaN,,,NaN,,,NaN,NaN,NaN,,NaN,NaN,NaN,NaN,NaN,NaN,NaN,4,26,여자,yes,yes,yes,yes,no,2022-11-22_12h26.45.095,Main,2022.2.4,59.5453238164227
25,넌 시끄러워,4,Green,A,2.83333333333333,3.03333333333333,ScrollDown,ScrollUp,Green.png,1,Negative,Incongruent,,,NaN,,,NaN,NaN,NaN,NaN,NaN,NaN,NaN,NaN,NaN,NaN,NaN,NaN,0,0,0,0,NaN,NaN,NaN,NaN,NaN,NaN,NaN,NaN,0,0,0,0,NaN,NaN,NaN,NaN,0,0,0,0,0,24,24,24,NaN,NaN,NaN,NaN,NaN,NaN,NaN,NaN,NaN,NaN,NaN,NaN,NaN,NaN,NaN,NaN,NaN,NaN,NaN,NaN,NaN,,NaN,NaN,NaN,NaN,NaN,NaN,NaN,NaN,NaN,NaN,NaN,,,NaN,NaN,NaN,NaN,411.3663625,411.3663625,411.3663625,411.3663625,411.3663625,1.04783950617284,0.752489200000127,ScrollDown,정답,412.0701425,412.0701425,412.5537977,413.1227664,NaN,,NaN,NaN,NaN,,,NaN,,,NaN,NaN,NaN,,NaN,NaN,NaN,NaN,NaN,NaN,NaN,4,26,여자,yes,yes,yes,yes,no,2022-11-22_12h26.45.095,Main,2022.2.4,59.5453238164227
26,넌 만사태평이야,3,Orange,B,4,4.33333333333333,ScrollUp,ScrollDown,Orange.png,1,Neutral,Neutral,,,NaN,,,NaN,NaN,NaN,NaN,NaN,NaN,NaN,NaN,NaN,NaN,NaN,NaN,0,0,0,0,NaN,NaN,NaN,NaN,NaN,NaN,NaN,NaN,0,0,0,0,NaN,NaN,NaN,NaN,0,0,0,0,0,25,25,25,NaN,NaN,NaN,NaN,NaN,NaN,NaN,NaN,NaN,NaN,NaN,NaN,NaN,NaN,NaN,NaN,NaN,NaN,NaN,NaN,NaN,,NaN,NaN,NaN,NaN,NaN,NaN,NaN,NaN,NaN,NaN,NaN,,,NaN,NaN,NaN,NaN,413.1227664,413.1227664,413.1227664,413.1227664,413.1227664,1.58641975308642,1.9745174000002,ScrollUp,정답,415.0434369,415.0434369,415.5272376,416.0968382,NaN,,NaN,NaN,NaN,,,NaN,,,NaN,NaN,NaN,,NaN,NaN,NaN,NaN,NaN,NaN,NaN,4,26,여자,yes,yes,yes,yes,no,2022-11-22_12h26.45.095,Main,2022.2.4,59.5453238164227
27,넌 붙임성있어,1,Green,A,5.70833333333333,5.63333333333333,ScrollDown,ScrollUp,Green.png,1,Positive,Congruent,,,NaN,,,NaN,NaN,NaN,NaN,NaN,NaN,NaN,NaN,NaN,NaN,NaN,NaN,0,0,0,0,NaN,NaN,NaN,NaN,NaN,NaN,NaN,NaN,0,0,0,0,NaN,NaN,NaN,NaN,0,0,0,0,0,26,26,26,NaN,NaN,NaN,NaN,NaN,NaN,NaN,NaN,NaN,NaN,NaN,NaN,NaN,NaN,NaN,NaN,NaN,NaN,NaN,NaN,NaN,,NaN,NaN,NaN,NaN,NaN,NaN,NaN,NaN,NaN,NaN,NaN,,,NaN,NaN,NaN,NaN,416.0968382,416.0968382,416.0968382,416.0968382,416.0968382,1.09876543209877,1.46295450000002,ScrollDown,정답,417.5038927,417.5038927,417.9886443,418.5199984,NaN,,NaN,NaN,NaN,,,NaN,,,NaN,NaN,NaN,,NaN,NaN,NaN,NaN,NaN,NaN,NaN,4,26,여자,yes,yes,yes,yes,no,2022-11-22_12h26.45.095,Main,2022.2.4,59.5453238164227
28,넌 영리해,2,Green,A,6,4.03333333333333,ScrollDown,ScrollUp,Green.png,1,Positive,Congruent,,,NaN,,,NaN,NaN,NaN,NaN,NaN,NaN,NaN,NaN,NaN,NaN,NaN,NaN,0,0,0,0,NaN,NaN,NaN,NaN,NaN,NaN,NaN,NaN,0,0,0,0,NaN,NaN,NaN,NaN,0,0,0,0,0,27,27,27,NaN,NaN,NaN,NaN,NaN,NaN,NaN,NaN,NaN,NaN,NaN,NaN,NaN,NaN,NaN,NaN,NaN,NaN,NaN,NaN,NaN,,NaN,NaN,NaN,NaN,NaN,NaN,NaN,NaN,NaN,NaN,NaN,,,NaN,NaN,NaN,NaN,418.5199984,418.5199984,418.5199984,418.5199984,418.5199984,1,1.2167300000001,ScrollDown,정답,419.7179448,419.7179448,420.2032082,420.7630751,NaN,,NaN,NaN,NaN,,,NaN,,,NaN,NaN,NaN,,NaN,NaN,NaN,NaN,NaN,NaN,NaN,4,26,여자,yes,yes,yes,yes,no,2022-11-22_12h26.45.095,Main,2022.2.4,59.5453238164227
29,넌 열심이야,1,Orange,B,6.04166666666667,5.83333333333333,ScrollUp,ScrollDown,Orange.png,1,Positive,Incongruent,,,NaN,,,NaN,NaN,NaN,NaN,NaN,NaN,NaN,NaN,NaN,NaN,NaN,NaN,0,0,0,0,NaN,NaN,NaN,NaN,NaN,NaN,NaN,NaN,0,0,0,0,NaN,NaN,NaN,NaN,0,0,0,0,0,28,28,28,NaN,NaN,NaN,NaN,NaN,NaN,NaN,NaN,NaN,NaN,NaN,NaN,NaN,NaN,NaN,NaN,NaN,NaN,NaN,NaN,NaN,,NaN,NaN,NaN,NaN,NaN,NaN,NaN,NaN,NaN,NaN,NaN,,,NaN,NaN,NaN,NaN,420.7630751,420.7630751,420.7630751,420.7630751,420.7630751,1.63734567901235,1.60206979999998,ScrollUp,정답,422.3168405,422.3168405,422.8014235,423.3389699,NaN,,NaN,NaN,NaN,,,NaN,,,NaN,NaN,NaN,,NaN,NaN,NaN,NaN,NaN,NaN,NaN,4,26,여자,yes,yes,yes,yes,no,2022-11-22_12h26.45.095,Main,2022.2.4,59.5453238164227
30,넌 인기없어,4,Orange,B,3,3.3,ScrollUp,ScrollDown,Orange.png,1,Negative,Congruent,,,NaN,,,NaN,NaN,NaN,NaN,NaN,NaN,NaN,NaN,NaN,NaN,NaN,NaN,0,0,0,0,NaN,NaN,NaN,NaN,NaN,NaN,NaN,NaN,0,0,0,0,NaN,NaN,NaN,NaN,0,0,0,0,0,29,29,29,NaN,NaN,NaN,NaN,NaN,NaN,NaN,NaN,NaN,NaN,NaN,NaN,NaN,NaN,NaN,NaN,NaN,NaN,NaN,NaN,NaN,,NaN,NaN,NaN,NaN,NaN,NaN,NaN,NaN,NaN,NaN,NaN,,,NaN,NaN,NaN,NaN,423.3389699,423.3389699,423.3389699,423.3389699,423.3389699,1.67438271604938,1.0771678000001,ScrollUp,정답,424.3911002,424.3911002,424.8753596,425.4433434,NaN,,NaN,NaN,NaN,,,NaN,,,NaN,NaN,NaN,,NaN,NaN,NaN,NaN,NaN,NaN,NaN,4,26,여자,yes,yes,yes,yes,no,2022-11-22_12h26.45.095,Main,2022.2.4,59.5453238164227
31,넌 익살스러워,3,Green,A,4.70833333333333,4.83333333333333,ScrollDown,ScrollUp,Green.png,1,Neutral,Neutral,,,NaN,,,NaN,NaN,NaN,NaN,NaN,NaN,NaN,NaN,NaN,NaN,NaN,NaN,0,0,0,0,NaN,NaN,NaN,NaN,NaN,NaN,NaN,NaN,0,0,0,0,NaN,NaN,NaN,NaN,0,0,0,0,0,30,30,30,NaN,NaN,NaN,NaN,NaN,NaN,NaN,NaN,NaN,NaN,NaN,NaN,NaN,NaN,NaN,NaN,NaN,NaN,NaN,NaN,NaN,,NaN,NaN,NaN,NaN,NaN,NaN,NaN,NaN,NaN,NaN,NaN,,,NaN,NaN,NaN,NaN,425.4433434,425.4433434,425.4433434,425.4433434,425.4433434,1.25771604938272,0.871112499999981,ScrollDown,정답,426.2607954,426.2607954,426.7455479,427.296647,NaN,,NaN,NaN,NaN,,,NaN,,,NaN,NaN,NaN,,NaN,NaN,NaN,NaN,NaN,NaN,NaN,4,26,여자,yes,yes,yes,yes,no,2022-11-22_12h26.45.095,Main,2022.2.4,59.5453238164227
32,넌 이기적이야,5,Orange,B,2.29166666666667,2.33333333333333,ScrollUp,ScrollDown,Orange.png,1,Negative,Congruent,,,NaN,,,NaN,NaN,NaN,NaN,NaN,NaN,NaN,NaN,NaN,NaN,NaN,NaN,0,0,0,0,NaN,NaN,NaN,NaN,NaN,NaN,NaN,NaN,0,0,0,0,NaN,NaN,NaN,NaN,0,0,0,0,0,31,31,31,NaN,NaN,NaN,NaN,NaN,NaN,NaN,NaN,NaN,NaN,NaN,NaN,NaN,NaN,NaN,NaN,NaN,NaN,NaN,NaN,NaN,,NaN,NaN,NaN,NaN,NaN,NaN,NaN,NaN,NaN,NaN,NaN,,,NaN,NaN,NaN,NaN,427.296647,427.296647,427.296647,427.296647,427.296647,1.33487654320988,1.42204869999978,ScrollDown,오답,428.6843248,428.6843248,429.1683052,429.699959,NaN,,NaN,NaN,NaN,,,NaN,,,NaN,NaN,NaN,,NaN,NaN,NaN,NaN,NaN,NaN,NaN,4,26,여자,yes,yes,yes,yes,no,2022-11-22_12h26.45.095,Main,2022.2.4,59.5453238164227
33,나를 데려가줘,6,Orange,B,0,0,ScrollDown,ScrollUp,Orange.png,1,NonTarget,NonTarget,,,NaN,,,NaN,NaN,NaN,NaN,NaN,NaN,NaN,NaN,NaN,NaN,NaN,NaN,0,0,0,0,NaN,NaN,NaN,NaN,NaN,NaN,NaN,NaN,0,0,0,0,NaN,NaN,NaN,NaN,0,0,0,0,0,32,32,32,NaN,NaN,NaN,NaN,NaN,NaN,NaN,NaN,NaN,NaN,NaN,NaN,NaN,NaN,NaN,NaN,NaN,NaN,NaN,NaN,NaN,,NaN,NaN,NaN,NaN,NaN,NaN,NaN,NaN,NaN,NaN,NaN,,,NaN,NaN,NaN,NaN,429.699959,429.699959,429.699959,429.699959,429.699959,1.77777777777778,1.83310890000007,ScrollUp,오답,431.5142008,431.5142008,431.9986992,432.5597089,NaN,,NaN,NaN,NaN,,,NaN,,,NaN,NaN,NaN,,NaN,NaN,NaN,NaN,NaN,NaN,NaN,4,26,여자,yes,yes,yes,yes,no,2022-11-22_12h26.45.095,Main,2022.2.4,59.5453238164227
34,넌 기회주의자야,5,Green,A,2.875,2.13333333333333,ScrollDown,ScrollUp,Green.png,1,Negative,Incongruent,,,NaN,,,NaN,NaN,NaN,NaN,NaN,NaN,NaN,NaN,NaN,NaN,NaN,NaN,0,0,0,0,NaN,NaN,NaN,NaN,NaN,NaN,NaN,NaN,0,0,0,0,NaN,NaN,NaN,NaN,0,0,0,0,0,33,33,33,NaN,NaN,NaN,NaN,NaN,NaN,NaN,NaN,NaN,NaN,NaN,NaN,NaN,NaN,NaN,NaN,NaN,NaN,NaN,NaN,NaN,,NaN,NaN,NaN,NaN,NaN,NaN,NaN,NaN,NaN,NaN,NaN,,,NaN,NaN,NaN,NaN,432.5597089,432.5597089,432.5597089,432.5597089,432.5597089,1.28858024691358,0.717189500000131,ScrollDown,정답,433.2317421,433.2317421,433.7167367,434.2183715,NaN,,NaN,NaN,NaN,,,NaN,,,NaN,NaN,NaN,,NaN,NaN,NaN,NaN,NaN,NaN,NaN,4,26,여자,yes,yes,yes,yes,no,2022-11-22_12h26.45.095,Main,2022.2.4,59.5453238164227
NaN,,NaN,,,NaN,NaN,,,,NaN,,,,,NaN,,,NaN,NaN,NaN,NaN,NaN,NaN,NaN,NaN,NaN,NaN,NaN,NaN,0,0,0,0,NaN,NaN,NaN,NaN,NaN,NaN,NaN,NaN,0,0,0,0,NaN,NaN,NaN,NaN,0,0,0,0,NaN,NaN,NaN,NaN,0,0,0,0,NaN,NaN,NaN,NaN,NaN,NaN,NaN,NaN,NaN,NaN,NaN,NaN,NaN,NaN,NaN,NaN,NaN,,NaN,NaN,NaN,NaN,NaN,NaN,NaN,NaN,NaN,NaN,NaN,,,NaN,NaN,NaN,NaN,NaN,NaN,NaN,NaN,NaN,NaN,NaN,,,NaN,NaN,NaN,NaN,2,,NaN,NaN,NaN,,,NaN,,,NaN,NaN,NaN,,NaN,NaN,NaN,NaN,NaN,NaN,NaN,4,26,여자,yes,yes,yes,yes,no,2022-11-22_12h26.45.095,Main,2022.2.4,59.5453238164227
NaN,,NaN,,,NaN,NaN,,,,NaN,,,,,NaN,,,NaN,NaN,NaN,NaN,NaN,NaN,NaN,NaN,NaN,NaN,NaN,NaN,0,0,0,0,NaN,NaN,NaN,NaN,NaN,NaN,NaN,NaN,0,0,0,0,NaN,NaN,NaN,NaN,0,0,0,0,NaN,NaN,NaN,NaN,NaN,NaN,NaN,NaN,NaN,NaN,NaN,NaN,NaN,NaN,NaN,NaN,NaN,NaN,NaN,NaN,NaN,NaN,NaN,NaN,NaN,,NaN,NaN,NaN,NaN,NaN,NaN,NaN,NaN,NaN,NaN,NaN,,,NaN,NaN,NaN,NaN,NaN,NaN,NaN,NaN,NaN,NaN,NaN,,,NaN,NaN,NaN,NaN,NaN,,NaN,NaN,NaN,,,NaN,,,NaN,NaN,NaN,,NaN,NaN,NaN,NaN,NaN,NaN,NaN,4,26,여자,yes,yes,yes,yes,no,2022-11-22_12h26.45.095,Main,2022.2.4,59.5453238164227
1,넌 미성숙해,4,Green,A,3,3.2,ScrollDown,ScrollUp,Green.png,2,Negative,Incongruent,,,NaN,,,NaN,NaN,NaN,NaN,NaN,NaN,NaN,NaN,NaN,NaN,NaN,NaN,0,0,0,0,NaN,NaN,NaN,NaN,NaN,NaN,NaN,NaN,0,0,0,0,NaN,NaN,NaN,NaN,1,0,1,0,0,0,0,0,NaN,NaN,NaN,NaN,NaN,NaN,NaN,NaN,NaN,NaN,NaN,NaN,NaN,NaN,NaN,NaN,NaN,NaN,NaN,NaN,NaN,,NaN,NaN,NaN,NaN,NaN,NaN,NaN,NaN,NaN,NaN,NaN,,,NaN,NaN,NaN,NaN,472.7164695,472.7164695,472.7164695,472.7164695,472.7164695,1.0462962962963,1.14651209999988,ScrollDown,정답,473.8375268,473.8375268,474.3221993,474.8819144,NaN,,NaN,NaN,NaN,,,NaN,,,NaN,NaN,NaN,,NaN,NaN,NaN,NaN,NaN,NaN,NaN,4,26,여자,yes,yes,yes,yes,no,2022-11-22_12h26.45.095,Main,2022.2.4,59.5453238164227
2,넌 반사회적이야,5,Orange,B,2.41666666666667,2.03333333333333,ScrollUp,ScrollDown,Orange.png,2,Negative,Congruent,,,NaN,,,NaN,NaN,NaN,NaN,NaN,NaN,NaN,NaN,NaN,NaN,NaN,NaN,0,0,0,0,NaN,NaN,NaN,NaN,NaN,NaN,NaN,NaN,0,0,0,0,NaN,NaN,NaN,NaN,1,0,1,0,0,1,1,1,NaN,NaN,NaN,NaN,NaN,NaN,NaN,NaN,NaN,NaN,NaN,NaN,NaN,NaN,NaN,NaN,NaN,NaN,NaN,NaN,NaN,,NaN,NaN,NaN,NaN,NaN,NaN,NaN,NaN,NaN,NaN,NaN,,,NaN,NaN,NaN,NaN,474.8819144,474.8819144,474.8819144,474.8819144,474.8819144,1.77469135802469,0.923923099999911,ScrollUp,정답,475.7593476,475.7593476,476.2438383,476.8039095,NaN,,NaN,NaN,NaN,,,NaN,,,NaN,NaN,NaN,,NaN,NaN,NaN,NaN,NaN,NaN,NaN,4,26,여자,yes,yes,yes,yes,no,2022-11-22_12h26.45.095,Main,2022.2.4,59.5453238164227
3,넌 유능해,2,Green,A,6.20833333333333,4.43333333333333,ScrollDown,ScrollUp,Green.png,2,Positive,Congruent,,,NaN,,,NaN,NaN,NaN,NaN,NaN,NaN,NaN,NaN,NaN,NaN,NaN,NaN,0,0,0,0,NaN,NaN,NaN,NaN,NaN,NaN,NaN,NaN,0,0,0,0,NaN,NaN,NaN,NaN,1,0,1,0,0,2,2,2,NaN,NaN,NaN,NaN,NaN,NaN,NaN,NaN,NaN,NaN,NaN,NaN,NaN,NaN,NaN,NaN,NaN,NaN,NaN,NaN,NaN,,NaN,NaN,NaN,NaN,NaN,NaN,NaN,NaN,NaN,NaN,NaN,,,NaN,NaN,NaN,NaN,476.8039095,476.8039095,476.8039095,476.8039095,476.8039095,1.05246913580247,0.868018500000062,ScrollDown,정답,477.6266601,477.6266601,478.1109478,478.6681676,NaN,,NaN,NaN,NaN,,,NaN,,,NaN,NaN,NaN,,NaN,NaN,NaN,NaN,NaN,NaN,NaN,4,26,여자,yes,yes,yes,yes,no,2022-11-22_12h26.45.095,Main,2022.2.4,59.5453238164227
4,넌 능숙해,2,Orange,B,5.66666666666667,4.73333333333333,ScrollUp,ScrollDown,Orange.png,2,Positive,Incongruent,,,NaN,,,NaN,NaN,NaN,NaN,NaN,NaN,NaN,NaN,NaN,NaN,NaN,NaN,0,0,0,0,NaN,NaN,NaN,NaN,NaN,NaN,NaN,NaN,0,0,0,0,NaN,NaN,NaN,NaN,1,0,1,0,0,3,3,3,NaN,NaN,NaN,NaN,NaN,NaN,NaN,NaN,NaN,NaN,NaN,NaN,NaN,NaN,NaN,NaN,NaN,NaN,NaN,NaN,NaN,,NaN,NaN,NaN,NaN,NaN,NaN,NaN,NaN,NaN,NaN,NaN,,,NaN,NaN,NaN,NaN,478.6681676,478.6681676,478.6681676,478.6681676,478.6681676,1.64351851851852,0.929202900000064,ScrollUp,정답,479.5526619,479.5526619,480.037734,480.5750892,NaN,,NaN,NaN,NaN,,,NaN,,,NaN,NaN,NaN,,NaN,NaN,NaN,NaN,NaN,NaN,NaN,4,26,여자,yes,yes,yes,yes,no,2022-11-22_12h26.45.095,Main,2022.2.4,59.5453238164227
5,넌 진부해,4,Orange,B,2.45833333333333,3.16666666666667,ScrollUp,ScrollDown,Orange.png,2,Negative,Congruent,,,NaN,,,NaN,NaN,NaN,NaN,NaN,NaN,NaN,NaN,NaN,NaN,NaN,NaN,0,0,0,0,NaN,NaN,NaN,NaN,NaN,NaN,NaN,NaN,0,0,0,0,NaN,NaN,NaN,NaN,1,0,1,0,0,4,4,4,NaN,NaN,NaN,NaN,NaN,NaN,NaN,NaN,NaN,NaN,NaN,NaN,NaN,NaN,NaN,NaN,NaN,NaN,NaN,NaN,NaN,,NaN,NaN,NaN,NaN,NaN,NaN,NaN,NaN,NaN,NaN,NaN,,,NaN,NaN,NaN,NaN,480.5750892,480.5750892,480.5750892,480.5750892,480.5750892,1.73302469135802,0.763105600000017,ScrollUp,정답,481.3143378,481.3143378,481.7993104,482.3498718,NaN,,NaN,NaN,NaN,,,NaN,,,NaN,NaN,NaN,,NaN,NaN,NaN,NaN,NaN,NaN,NaN,4,26,여자,yes,yes,yes,yes,no,2022-11-22_12h26.45.095,Main,2022.2.4,59.5453238164227
6,나를 보내줘,6,Green,A,0,0,ScrollUp,ScrollDown,Green.png,2,NonTarget,NonTarget,,,NaN,,,NaN,NaN,NaN,NaN,NaN,NaN,NaN,NaN,NaN,NaN,NaN,NaN,0,0,0,0,NaN,NaN,NaN,NaN,NaN,NaN,NaN,NaN,0,0,0,0,NaN,NaN,NaN,NaN,1,0,1,0,0,5,5,5,NaN,NaN,NaN,NaN,NaN,NaN,NaN,NaN,NaN,NaN,NaN,NaN,NaN,NaN,NaN,NaN,NaN,NaN,NaN,NaN,NaN,,NaN,NaN,NaN,NaN,NaN,NaN,NaN,NaN,NaN,NaN,NaN,,,NaN,NaN,NaN,NaN,482.3498718,482.3498718,482.3498718,482.3498718,482.3498718,1.75308641975309,1.32255909999981,ScrollUp,정답,483.6336731,483.6336731,484.1189074,484.6553286,NaN,,NaN,NaN,NaN,,,NaN,,,NaN,NaN,NaN,,NaN,NaN,NaN,NaN,NaN,NaN,NaN,4,26,여자,yes,yes,yes,yes,no,2022-11-22_12h26.45.095,Main,2022.2.4,59.5453238164227
7,넌 엄격해,3,Green,A,4.16666666666667,4.1,ScrollDown,ScrollUp,Green.png,2,Neutral,Neutral,,,NaN,,,NaN,NaN,NaN,NaN,NaN,NaN,NaN,NaN,NaN,NaN,NaN,NaN,0,0,0,0,NaN,NaN,NaN,NaN,NaN,NaN,NaN,NaN,0,0,0,0,NaN,NaN,NaN,NaN,1,0,1,0,0,6,6,6,NaN,NaN,NaN,NaN,NaN,NaN,NaN,NaN,NaN,NaN,NaN,NaN,NaN,NaN,NaN,NaN,NaN,NaN,NaN,NaN,NaN,,NaN,NaN,NaN,NaN,NaN,NaN,NaN,NaN,NaN,NaN,NaN,,,NaN,NaN,NaN,NaN,484.6553286,484.6553286,484.6553286,484.6553286,484.6553286,1.29166666666667,1.00952230000007,ScrollDown,정답,485.6418896,485.6418896,486.1259327,486.6534384,NaN,,NaN,NaN,NaN,,,NaN,,,NaN,NaN,NaN,,NaN,NaN,NaN,NaN,NaN,NaN,NaN,4,26,여자,yes,yes,yes,yes,no,2022-11-22_12h26.45.095,Main,2022.2.4,59.5453238164227
8,나를 보내줘,6,Green,A,0,0,ScrollUp,ScrollDown,Green.png,2,NonTarget,NonTarget,,,NaN,,,NaN,NaN,NaN,NaN,NaN,NaN,NaN,NaN,NaN,NaN,NaN,NaN,0,0,0,0,NaN,NaN,NaN,NaN,NaN,NaN,NaN,NaN,0,0,0,0,NaN,NaN,NaN,NaN,1,0,1,0,0,7,7,7,NaN,NaN,NaN,NaN,NaN,NaN,NaN,NaN,NaN,NaN,NaN,NaN,NaN,NaN,NaN,NaN,NaN,NaN,NaN,NaN,NaN,,NaN,NaN,NaN,NaN,NaN,NaN,NaN,NaN,NaN,NaN,NaN,,,NaN,NaN,NaN,NaN,486.6534384,486.6534384,486.6534384,486.6534384,486.6534384,1.64969135802469,2.47736139999984,ScrollUp,정답,489.117067,489.117067,489.6013655,490.1650524,NaN,,NaN,NaN,NaN,,,NaN,,,NaN,NaN,NaN,,NaN,NaN,NaN,NaN,NaN,NaN,NaN,4,26,여자,yes,yes,yes,yes,no,2022-11-22_12h26.45.095,Main,2022.2.4,59.5453238164227
9,넌 대담해,3,Orange,B,4.875,4.86666666666667,ScrollUp,ScrollDown,Orange.png,2,Neutral,Neutral,,,NaN,,,NaN,NaN,NaN,NaN,NaN,NaN,NaN,NaN,NaN,NaN,NaN,NaN,0,0,0,0,NaN,NaN,NaN,NaN,NaN,NaN,NaN,NaN,0,0,0,0,NaN,NaN,NaN,NaN,1,0,1,0,0,8,8,8,NaN,NaN,NaN,NaN,NaN,NaN,NaN,NaN,NaN,NaN,NaN,NaN,NaN,NaN,NaN,NaN,NaN,NaN,NaN,NaN,NaN,,NaN,NaN,NaN,NaN,NaN,NaN,NaN,NaN,NaN,NaN,NaN,,,NaN,NaN,NaN,NaN,490.1650524,490.1650524,490.1650524,490.1650524,490.1650524,1.82561728395062,1.25864440000009,ScrollUp,정답,491.3756626,491.3756626,491.8606237,492.4168659,NaN,,NaN,NaN,NaN,,,NaN,,,NaN,NaN,NaN,,NaN,NaN,NaN,NaN,NaN,NaN,NaN,4,26,여자,yes,yes,yes,yes,no,2022-11-22_12h26.45.095,Main,2022.2.4,59.5453238164227
10,넌 꾸준해,1,Green,A,5.91666666666667,5.8,ScrollDown,ScrollUp,Green.png,2,Positive,Congruent,,,NaN,,,NaN,NaN,NaN,NaN,NaN,NaN,NaN,NaN,NaN,NaN,NaN,NaN,0,0,0,0,NaN,NaN,NaN,NaN,NaN,NaN,NaN,NaN,0,0,0,0,NaN,NaN,NaN,NaN,1,0,1,0,0,9,9,9,NaN,NaN,NaN,NaN,NaN,NaN,NaN,NaN,NaN,NaN,NaN,NaN,NaN,NaN,NaN,NaN,NaN,NaN,NaN,NaN,NaN,,NaN,NaN,NaN,NaN,NaN,NaN,NaN,NaN,NaN,NaN,NaN,,,NaN,NaN,NaN,NaN,492.4168659,492.4168659,492.4168659,492.4168659,492.4168659,1.14043209876543,0.84487769999987,ScrollDown,정답,493.2183992,493.2183992,493.7034686,494.2519453,NaN,,NaN,NaN,NaN,,,NaN,,,NaN,NaN,NaN,,NaN,NaN,NaN,NaN,NaN,NaN,NaN,4,26,여자,yes,yes,yes,yes,no,2022-11-22_12h26.45.095,Main,2022.2.4,59.5453238164227
11,나를 데려가줘,6,Orange,B,0,0,ScrollDown,ScrollUp,Orange.png,2,NonTarget,NonTarget,,,NaN,,,NaN,NaN,NaN,NaN,NaN,NaN,NaN,NaN,NaN,NaN,NaN,NaN,0,0,0,0,NaN,NaN,NaN,NaN,NaN,NaN,NaN,NaN,0,0,0,0,NaN,NaN,NaN,NaN,1,0,1,0,0,10,10,10,NaN,NaN,NaN,NaN,NaN,NaN,NaN,NaN,NaN,NaN,NaN,NaN,NaN,NaN,NaN,NaN,NaN,NaN,NaN,NaN,NaN,,NaN,NaN,NaN,NaN,NaN,NaN,NaN,NaN,NaN,NaN,NaN,,,NaN,NaN,NaN,NaN,494.2519453,494.2519453,494.2519453,494.2519453,494.2519453,1.31635802469136,1.11023599999999,ScrollDown,정답,495.3269143,495.3269143,495.8122664,496.3740108,NaN,,NaN,NaN,NaN,,,NaN,,,NaN,NaN,NaN,,NaN,NaN,NaN,NaN,NaN,NaN,NaN,4,26,여자,yes,yes,yes,yes,no,2022-11-22_12h26.45.095,Main,2022.2.4,59.5453238164227
12,넌 독선적이야,5,Green,A,2.45833333333333,1.93333333333333,ScrollDown,ScrollUp,Green.png,2,Negative,Incongruent,,,NaN,,,NaN,NaN,NaN,NaN,NaN,NaN,NaN,NaN,NaN,NaN,NaN,NaN,0,0,0,0,NaN,NaN,NaN,NaN,NaN,NaN,NaN,NaN,0,0,0,0,NaN,NaN,NaN,NaN,1,0,1,0,0,11,11,11,NaN,NaN,NaN,NaN,NaN,NaN,NaN,NaN,NaN,NaN,NaN,NaN,NaN,NaN,NaN,NaN,NaN,NaN,NaN,NaN,NaN,,NaN,NaN,NaN,NaN,NaN,NaN,NaN,NaN,NaN,NaN,NaN,,,NaN,NaN,NaN,NaN,496.3740108,496.3740108,496.3740108,496.3740108,496.3740108,1.27623456790123,1.05123660000004,ScrollDown,정답,497.3756193,497.3756193,497.8609482,498.3862614,NaN,,NaN,NaN,NaN,,,NaN,,,NaN,NaN,NaN,,NaN,NaN,NaN,NaN,NaN,NaN,NaN,4,26,여자,yes,yes,yes,yes,no,2022-11-22_12h26.45.095,Main,2022.2.4,59.5453238164227
13,나를 보내줘,6,Green,A,0,0,ScrollUp,ScrollDown,Green.png,2,NonTarget,NonTarget,,,NaN,,,NaN,NaN,NaN,NaN,NaN,NaN,NaN,NaN,NaN,NaN,NaN,NaN,0,0,0,0,NaN,NaN,NaN,NaN,NaN,NaN,NaN,NaN,0,0,0,0,NaN,NaN,NaN,NaN,1,0,1,0,0,12,12,12,NaN,NaN,NaN,NaN,NaN,NaN,NaN,NaN,NaN,NaN,NaN,NaN,NaN,NaN,NaN,NaN,NaN,NaN,NaN,NaN,NaN,,NaN,NaN,NaN,NaN,NaN,NaN,NaN,NaN,NaN,NaN,NaN,,,NaN,NaN,NaN,NaN,498.3862614,498.3862614,498.3862614,498.3862614,498.3862614,1.66512345679012,1.12560929999995,ScrollUp,정답,499.5016262,499.5016262,499.9869558,500.5461942,NaN,,NaN,NaN,NaN,,,NaN,,,NaN,NaN,NaN,,NaN,NaN,NaN,NaN,NaN,NaN,NaN,4,26,여자,yes,yes,yes,yes,no,2022-11-22_12h26.45.095,Main,2022.2.4,59.5453238164227
14,넌 책임감있어,1,Orange,B,6.34782608695652,6,ScrollUp,ScrollDown,Orange.png,2,Positive,Incongruent,,,NaN,,,NaN,NaN,NaN,NaN,NaN,NaN,NaN,NaN,NaN,NaN,NaN,NaN,0,0,0,0,NaN,NaN,NaN,NaN,NaN,NaN,NaN,NaN,0,0,0,0,NaN,NaN,NaN,NaN,1,0,1,0,0,13,13,13,NaN,NaN,NaN,NaN,NaN,NaN,NaN,NaN,NaN,NaN,NaN,NaN,NaN,NaN,NaN,NaN,NaN,NaN,NaN,NaN,NaN,,NaN,NaN,NaN,NaN,NaN,NaN,NaN,NaN,NaN,NaN,NaN,,,NaN,NaN,NaN,NaN,500.5461942,500.5461942,500.5461942,500.5461942,500.5461942,2,1.42856589999997,ScrollUp,정답,501.9316133,501.9316133,502.4166479,502.9831241,NaN,,NaN,NaN,NaN,,,NaN,,,NaN,NaN,NaN,,NaN,NaN,NaN,NaN,NaN,NaN,NaN,4,26,여자,yes,yes,yes,yes,no,2022-11-22_12h26.45.095,Main,2022.2.4,59.5453238164227
15,넌 문학적이야,3,Green,A,4.70833333333333,4.33333333333333,ScrollDown,ScrollUp,Green.png,2,Neutral,Neutral,,,NaN,,,NaN,NaN,NaN,NaN,NaN,NaN,NaN,NaN,NaN,NaN,NaN,NaN,0,0,0,0,NaN,NaN,NaN,NaN,NaN,NaN,NaN,NaN,0,0,0,0,NaN,NaN,NaN,NaN,1,0,1,0,0,14,14,14,NaN,NaN,NaN,NaN,NaN,NaN,NaN,NaN,NaN,NaN,NaN,NaN,NaN,NaN,NaN,NaN,NaN,NaN,NaN,NaN,NaN,,NaN,NaN,NaN,NaN,NaN,NaN,NaN,NaN,NaN,NaN,NaN,,,NaN,NaN,NaN,NaN,502.9831241,502.9831241,502.9831241,502.9831241,502.9831241,1.27469135802469,0.845456099999865,ScrollDown,정답,503.7765412,503.7765412,504.261666,504.8183277,NaN,,NaN,NaN,NaN,,,NaN,,,NaN,NaN,NaN,,NaN,NaN,NaN,NaN,NaN,NaN,NaN,4,26,여자,yes,yes,yes,yes,no,2022-11-22_12h26.45.095,Main,2022.2.4,59.5453238164227
16,넌 재미있어,1,Orange,B,5.875,5.7,ScrollUp,ScrollDown,Orange.png,2,Positive,Incongruent,,,NaN,,,NaN,NaN,NaN,NaN,NaN,NaN,NaN,NaN,NaN,NaN,NaN,NaN,0,0,0,0,NaN,NaN,NaN,NaN,NaN,NaN,NaN,NaN,0,0,0,0,NaN,NaN,NaN,NaN,1,0,1,0,0,15,15,15,NaN,NaN,NaN,NaN,NaN,NaN,NaN,NaN,NaN,NaN,NaN,NaN,NaN,NaN,NaN,NaN,NaN,NaN,NaN,NaN,NaN,,NaN,NaN,NaN,NaN,NaN,NaN,NaN,NaN,NaN,NaN,NaN,,,NaN,NaN,NaN,NaN,504.8183277,504.8183277,504.8183277,504.8183277,504.8183277,1.60956790123457,1.20002989999989,ScrollUp,정답,505.9750677,505.9750677,506.4601225,506.9914631,NaN,,NaN,NaN,NaN,,,NaN,,,NaN,NaN,NaN,,NaN,NaN,NaN,NaN,NaN,NaN,NaN,4,26,여자,yes,yes,yes,yes,no,2022-11-22_12h26.45.095,Main,2022.2.4,59.5453238164227
17,나를 데려가줘,6,Orange,B,0,0,ScrollDown,ScrollUp,Orange.png,2,NonTarget,NonTarget,,,NaN,,,NaN,NaN,NaN,NaN,NaN,NaN,NaN,NaN,NaN,NaN,NaN,NaN,0,0,0,0,NaN,NaN,NaN,NaN,NaN,NaN,NaN,NaN,0,0,0,0,NaN,NaN,NaN,NaN,1,0,1,0,0,16,16,16,NaN,NaN,NaN,NaN,NaN,NaN,NaN,NaN,NaN,NaN,NaN,NaN,NaN,NaN,NaN,NaN,NaN,NaN,NaN,NaN,NaN,,NaN,NaN,NaN,NaN,NaN,NaN,NaN,NaN,NaN,NaN,NaN,,,NaN,NaN,NaN,NaN,506.9914631,506.9914631,506.9914631,506.9914631,506.9914631,1.33024691358025,1.19557269999996,ScrollDown,정답,508.1690972,508.1690972,508.6543135,509.2132125,NaN,,NaN,NaN,NaN,,,NaN,,,NaN,NaN,NaN,,NaN,NaN,NaN,NaN,NaN,NaN,NaN,4,26,여자,yes,yes,yes,yes,no,2022-11-22_12h26.45.095,Main,2022.2.4,59.5453238164227
18,넌 협력적이야,1,Green,A,5.625,5.63333333333333,ScrollDown,ScrollUp,Green.png,2,Positive,Congruent,,,NaN,,,NaN,NaN,NaN,NaN,NaN,NaN,NaN,NaN,NaN,NaN,NaN,NaN,0,0,0,0,NaN,NaN,NaN,NaN,NaN,NaN,NaN,NaN,0,0,0,0,NaN,NaN,NaN,NaN,1,0,1,0,0,17,17,17,NaN,NaN,NaN,NaN,NaN,NaN,NaN,NaN,NaN,NaN,NaN,NaN,NaN,NaN,NaN,NaN,NaN,NaN,NaN,NaN,NaN,,NaN,NaN,NaN,NaN,NaN,NaN,NaN,NaN,NaN,NaN,NaN,,,NaN,NaN,NaN,NaN,509.2132125,509.2132125,509.2132125,509.2132125,509.2132125,1.27623456790123,1.35195679999993,ScrollDown,정답,510.5198732,510.5198732,511.0059874,511.5654509,NaN,,NaN,NaN,NaN,,,NaN,,,NaN,NaN,NaN,,NaN,NaN,NaN,NaN,NaN,NaN,NaN,4,26,여자,yes,yes,yes,yes,no,2022-11-22_12h26.45.095,Main,2022.2.4,59.5453238164227
19,넌 평범해,3,Orange,B,4.33333333333333,4.23333333333333,ScrollUp,ScrollDown,Orange.png,2,Neutral,Neutral,,,NaN,,,NaN,NaN,NaN,NaN,NaN,NaN,NaN,NaN,NaN,NaN,NaN,NaN,0,0,0,0,NaN,NaN,NaN,NaN,NaN,NaN,NaN,NaN,0,0,0,0,NaN,NaN,NaN,NaN,1,0,1,0,0,18,18,18,NaN,NaN,NaN,NaN,NaN,NaN,NaN,NaN,NaN,NaN,NaN,NaN,NaN,NaN,NaN,NaN,NaN,NaN,NaN,NaN,NaN,,NaN,NaN,NaN,NaN,NaN,NaN,NaN,NaN,NaN,NaN,NaN,,,NaN,NaN,NaN,NaN,511.5654509,511.5654509,511.5654509,511.5654509,511.5654509,1.70061728395062,1.07351519999997,ScrollUp,정답,512.592539,512.592539,513.0776127,513.6304842,NaN,,NaN,NaN,NaN,,,NaN,,,NaN,NaN,NaN,,NaN,NaN,NaN,NaN,NaN,NaN,NaN,4,26,여자,yes,yes,yes,yes,no,2022-11-22_12h26.45.095,Main,2022.2.4,59.5453238164227
20,넌 오만해,5,Green,A,2.33333333333333,2,ScrollDown,ScrollUp,Green.png,2,Negative,Incongruent,,,NaN,,,NaN,NaN,NaN,NaN,NaN,NaN,NaN,NaN,NaN,NaN,NaN,NaN,0,0,0,0,NaN,NaN,NaN,NaN,NaN,NaN,NaN,NaN,0,0,0,0,NaN,NaN,NaN,NaN,1,0,1,0,0,19,19,19,NaN,NaN,NaN,NaN,NaN,NaN,NaN,NaN,NaN,NaN,NaN,NaN,NaN,NaN,NaN,NaN,NaN,NaN,NaN,NaN,NaN,,NaN,NaN,NaN,NaN,NaN,NaN,NaN,NaN,NaN,NaN,NaN,,,NaN,NaN,NaN,NaN,513.6304842,513.6304842,513.6304842,513.6304842,513.6304842,1.02469135802469,0.973119199999928,ScrollDown,정답,514.5650011,514.5650011,515.050349,515.6098415,NaN,,NaN,NaN,NaN,,,NaN,,,NaN,NaN,NaN,,NaN,NaN,NaN,NaN,NaN,NaN,NaN,4,26,여자,yes,yes,yes,yes,no,2022-11-22_12h26.45.095,Main,2022.2.4,59.5453238164227
21,넌 운이없어,4,Orange,B,3,3.46666666666667,ScrollUp,ScrollDown,Orange.png,2,Negative,Congruent,,,NaN,,,NaN,NaN,NaN,NaN,NaN,NaN,NaN,NaN,NaN,NaN,NaN,NaN,0,0,0,0,NaN,NaN,NaN,NaN,NaN,NaN,NaN,NaN,0,0,0,0,NaN,NaN,NaN,NaN,1,0,1,0,0,20,20,20,NaN,NaN,NaN,NaN,NaN,NaN,NaN,NaN,NaN,NaN,NaN,NaN,NaN,NaN,NaN,NaN,NaN,NaN,NaN,NaN,NaN,,NaN,NaN,NaN,NaN,NaN,NaN,NaN,NaN,NaN,NaN,NaN,,,NaN,NaN,NaN,NaN,515.6098415,515.6098415,515.6098415,515.6098415,515.6098415,1.78086419753086,0.96661620000009,ScrollUp,정답,516.5315008,516.5315008,517.0156403,517.5589858,NaN,,NaN,NaN,NaN,,,NaN,,,NaN,NaN,NaN,,NaN,NaN,NaN,NaN,NaN,NaN,NaN,4,26,여자,yes,yes,yes,yes,no,2022-11-22_12h26.45.095,Main,2022.2.4,59.5453238164227
22,넌 창조적이야,2,Orange,B,6.125,4.63333333333333,ScrollUp,ScrollDown,Orange.png,2,Positive,Incongruent,,,NaN,,,NaN,NaN,NaN,NaN,NaN,NaN,NaN,NaN,NaN,NaN,NaN,NaN,0,0,0,0,NaN,NaN,NaN,NaN,NaN,NaN,NaN,NaN,0,0,0,0,NaN,NaN,NaN,NaN,1,0,1,0,0,21,21,21,NaN,NaN,NaN,NaN,NaN,NaN,NaN,NaN,NaN,NaN,NaN,NaN,NaN,NaN,NaN,NaN,NaN,NaN,NaN,NaN,NaN,,NaN,NaN,NaN,NaN,NaN,NaN,NaN,NaN,NaN,NaN,NaN,,,NaN,NaN,NaN,NaN,517.5589858,517.5589858,517.5589858,517.5589858,517.5589858,1.63117283950617,1.1340952999999,ScrollUp,정답,518.6634827,518.6634827,519.1475516,519.7011699,NaN,,NaN,NaN,NaN,,,NaN,,,NaN,NaN,NaN,,NaN,NaN,NaN,NaN,NaN,NaN,NaN,4,26,여자,yes,yes,yes,yes,no,2022-11-22_12h26.45.095,Main,2022.2.4,59.5453238164227
23,나를 보내줘,6,Green,A,0,0,ScrollUp,ScrollDown,Green.png,2,NonTarget,NonTarget,,,NaN,,,NaN,NaN,NaN,NaN,NaN,NaN,NaN,NaN,NaN,NaN,NaN,NaN,0,0,0,0,NaN,NaN,NaN,NaN,NaN,NaN,NaN,NaN,0,0,0,0,NaN,NaN,NaN,NaN,1,0,1,0,0,22,22,22,NaN,NaN,NaN,NaN,NaN,NaN,NaN,NaN,NaN,NaN,NaN,NaN,NaN,NaN,NaN,NaN,NaN,NaN,NaN,NaN,NaN,,NaN,NaN,NaN,NaN,NaN,NaN,NaN,NaN,NaN,NaN,NaN,,,NaN,NaN,NaN,NaN,519.7011699,519.7011699,519.7011699,519.7011699,519.7011699,1.64969135802469,0.990710200000194,ScrollUp,정답,520.6524128,520.6524128,521.137344,521.6777898,NaN,,NaN,NaN,NaN,,,NaN,,,NaN,NaN,NaN,,NaN,NaN,NaN,NaN,NaN,NaN,NaN,4,26,여자,yes,yes,yes,yes,no,2022-11-22_12h26.45.095,Main,2022.2.4,59.5453238164227
24,넌 통찰력있어,2,Green,A,6.5,4.8,ScrollDown,ScrollUp,Green.png,2,Positive,Congruent,,,NaN,,,NaN,NaN,NaN,NaN,NaN,NaN,NaN,NaN,NaN,NaN,NaN,NaN,0,0,0,0,NaN,NaN,NaN,NaN,NaN,NaN,NaN,NaN,0,0,0,0,NaN,NaN,NaN,NaN,1,0,1,0,0,23,23,23,NaN,NaN,NaN,NaN,NaN,NaN,NaN,NaN,NaN,NaN,NaN,NaN,NaN,NaN,NaN,NaN,NaN,NaN,NaN,NaN,NaN,,NaN,NaN,NaN,NaN,NaN,NaN,NaN,NaN,NaN,NaN,NaN,,,NaN,NaN,NaN,NaN,521.6777898,521.6777898,521.6777898,521.6777898,521.6777898,1.23765432098765,0.930295999999998,ScrollDown,정답,522.5808774,522.5808774,523.0659316,523.6222293,NaN,,NaN,NaN,NaN,,,NaN,,,NaN,NaN,NaN,,NaN,NaN,NaN,NaN,NaN,NaN,NaN,4,26,여자,yes,yes,yes,yes,no,2022-11-22_12h26.45.095,Main,2022.2.4,59.5453238164227
25,넌 경솔해,5,Orange,B,2.45833333333333,2.26666666666667,ScrollUp,ScrollDown,Orange.png,2,Negative,Congruent,,,NaN,,,NaN,NaN,NaN,NaN,NaN,NaN,NaN,NaN,NaN,NaN,NaN,NaN,0,0,0,0,NaN,NaN,NaN,NaN,NaN,NaN,NaN,NaN,0,0,0,0,NaN,NaN,NaN,NaN,1,0,1,0,0,24,24,24,NaN,NaN,NaN,NaN,NaN,NaN,NaN,NaN,NaN,NaN,NaN,NaN,NaN,NaN,NaN,NaN,NaN,NaN,NaN,NaN,NaN,,NaN,NaN,NaN,NaN,NaN,NaN,NaN,NaN,NaN,NaN,NaN,,,NaN,NaN,NaN,NaN,523.6222293,523.6222293,523.6222293,523.6222293,523.6222293,1.77006172839506,1.01037489999999,ScrollUp,정답,524.590413,524.590413,525.0756076,525.6307327,NaN,,NaN,NaN,NaN,,,NaN,,,NaN,NaN,NaN,,NaN,NaN,NaN,NaN,NaN,NaN,NaN,4,26,여자,yes,yes,yes,yes,no,2022-11-22_12h26.45.095,Main,2022.2.4,59.5453238164227
26,넌 초조해,4,Green,A,2.91666666666667,3.13333333333333,ScrollDown,ScrollUp,Green.png,2,Negative,Incongruent,,,NaN,,,NaN,NaN,NaN,NaN,NaN,NaN,NaN,NaN,NaN,NaN,NaN,NaN,0,0,0,0,NaN,NaN,NaN,NaN,NaN,NaN,NaN,NaN,0,0,0,0,NaN,NaN,NaN,NaN,1,0,1,0,0,25,25,25,NaN,NaN,NaN,NaN,NaN,NaN,NaN,NaN,NaN,NaN,NaN,NaN,NaN,NaN,NaN,NaN,NaN,NaN,NaN,NaN,NaN,,NaN,NaN,NaN,NaN,NaN,NaN,NaN,NaN,NaN,NaN,NaN,,,NaN,NaN,NaN,NaN,525.6307327,525.6307327,525.6307327,525.6307327,525.6307327,1.23611111111111,0.992602099999885,ScrollDown,정답,526.5790496,526.5790496,527.063137,527.626145,NaN,,NaN,NaN,NaN,,,NaN,,,NaN,NaN,NaN,,NaN,NaN,NaN,NaN,NaN,NaN,NaN,4,26,여자,yes,yes,yes,yes,no,2022-11-22_12h26.45.095,Main,2022.2.4,59.5453238164227
27,넌 무관심해,4,Orange,B,2.83333333333333,2.9,ScrollUp,ScrollDown,Orange.png,2,Negative,Congruent,,,NaN,,,NaN,NaN,NaN,NaN,NaN,NaN,NaN,NaN,NaN,NaN,NaN,NaN,0,0,0,0,NaN,NaN,NaN,NaN,NaN,NaN,NaN,NaN,0,0,0,0,NaN,NaN,NaN,NaN,1,0,1,0,0,26,26,26,NaN,NaN,NaN,NaN,NaN,NaN,NaN,NaN,NaN,NaN,NaN,NaN,NaN,NaN,NaN,NaN,NaN,NaN,NaN,NaN,NaN,,NaN,NaN,NaN,NaN,NaN,NaN,NaN,NaN,NaN,NaN,NaN,,,NaN,NaN,NaN,NaN,527.626145,527.626145,527.626145,527.626145,527.626145,1.67283950617284,1.03881709999996,ScrollUp,정답,528.6158092,528.6158092,529.1001538,529.6306364,NaN,,NaN,NaN,NaN,,,NaN,,,NaN,NaN,NaN,,NaN,NaN,NaN,NaN,NaN,NaN,NaN,4,26,여자,yes,yes,yes,yes,no,2022-11-22_12h26.45.095,Main,2022.2.4,59.5453238164227
28,넌 감성적이야,3,Orange,B,4.125,4.16666666666667,ScrollUp,ScrollDown,Orange.png,2,Neutral,Neutral,,,NaN,,,NaN,NaN,NaN,NaN,NaN,NaN,NaN,NaN,NaN,NaN,NaN,NaN,0,0,0,0,NaN,NaN,NaN,NaN,NaN,NaN,NaN,NaN,0,0,0,0,NaN,NaN,NaN,NaN,1,0,1,0,0,27,27,27,NaN,NaN,NaN,NaN,NaN,NaN,NaN,NaN,NaN,NaN,NaN,NaN,NaN,NaN,NaN,NaN,NaN,NaN,NaN,NaN,NaN,,NaN,NaN,NaN,NaN,NaN,NaN,NaN,NaN,NaN,NaN,NaN,,,NaN,NaN,NaN,NaN,529.6306364,529.6306364,529.6306364,529.6306364,529.6306364,1.56944444444444,0.846212400000013,ScrollUp,정답,530.4597111,530.4597111,530.9445256,531.5054933,NaN,,NaN,NaN,NaN,,,NaN,,,NaN,NaN,NaN,,NaN,NaN,NaN,NaN,NaN,NaN,NaN,4,26,여자,yes,yes,yes,yes,no,2022-11-22_12h26.45.095,Main,2022.2.4,59.5453238164227
29,넌 배려심있어,1,Green,A,6.08333333333333,5.5,ScrollDown,ScrollUp,Green.png,2,Positive,Congruent,,,NaN,,,NaN,NaN,NaN,NaN,NaN,NaN,NaN,NaN,NaN,NaN,NaN,NaN,0,0,0,0,NaN,NaN,NaN,NaN,NaN,NaN,NaN,NaN,0,0,0,0,NaN,NaN,NaN,NaN,1,0,1,0,0,28,28,28,NaN,NaN,NaN,NaN,NaN,NaN,NaN,NaN,NaN,NaN,NaN,NaN,NaN,NaN,NaN,NaN,NaN,NaN,NaN,NaN,NaN,,NaN,NaN,NaN,NaN,NaN,NaN,NaN,NaN,NaN,NaN,NaN,,,NaN,NaN,NaN,NaN,531.5054933,531.5054933,531.5054933,531.5054933,531.5054933,1.32098765432099,0.869313700000021,ScrollDown,정답,532.3278849,532.3278849,532.8121217,533.3516244,NaN,,NaN,NaN,NaN,,,NaN,,,NaN,NaN,NaN,,NaN,NaN,NaN,NaN,NaN,NaN,NaN,4,26,여자,yes,yes,yes,yes,no,2022-11-22_12h26.45.095,Main,2022.2.4,59.5453238164227
30,넌 숨김없어,3,Green,A,4.5,4.93333333333333,ScrollDown,ScrollUp,Green.png,2,Neutral,Neutral,,,NaN,,,NaN,NaN,NaN,NaN,NaN,NaN,NaN,NaN,NaN,NaN,NaN,NaN,0,0,0,0,NaN,NaN,NaN,NaN,NaN,NaN,NaN,NaN,0,0,0,0,NaN,NaN,NaN,NaN,1,0,1,0,0,29,29,29,NaN,NaN,NaN,NaN,NaN,NaN,NaN,NaN,NaN,NaN,NaN,NaN,NaN,NaN,NaN,NaN,NaN,NaN,NaN,NaN,NaN,,NaN,NaN,NaN,NaN,NaN,NaN,NaN,NaN,NaN,NaN,NaN,,,NaN,NaN,NaN,NaN,533.3516244,533.3516244,533.3516244,533.3516244,533.3516244,1.3287037037037,1.48290930000007,ScrollDown,정답,534.8084774,534.8084774,535.2926528,535.8559755,NaN,,NaN,NaN,NaN,,,NaN,,,NaN,NaN,NaN,,NaN,NaN,NaN,NaN,NaN,NaN,NaN,4,26,여자,yes,yes,yes,yes,no,2022-11-22_12h26.45.095,Main,2022.2.4,59.5453238164227
31,넌 훌륭해,2,Orange,B,5.91666666666667,4.03333333333333,ScrollUp,ScrollDown,Orange.png,2,Positive,Incongruent,,,NaN,,,NaN,NaN,NaN,NaN,NaN,NaN,NaN,NaN,NaN,NaN,NaN,NaN,0,0,0,0,NaN,NaN,NaN,NaN,NaN,NaN,NaN,NaN,0,0,0,0,NaN,NaN,NaN,NaN,1,0,1,0,0,30,30,30,NaN,NaN,NaN,NaN,NaN,NaN,NaN,NaN,NaN,NaN,NaN,NaN,NaN,NaN,NaN,NaN,NaN,NaN,NaN,NaN,NaN,,NaN,NaN,NaN,NaN,NaN,NaN,NaN,NaN,NaN,NaN,NaN,,,NaN,NaN,NaN,NaN,535.8559755,535.8559755,535.8559755,535.8559755,535.8559755,1.56944444444444,0.783979799999997,ScrollUp,정답,536.5922414,536.5922414,537.0775534,537.6303122,NaN,,NaN,NaN,NaN,,,NaN,,,NaN,NaN,NaN,,NaN,NaN,NaN,NaN,NaN,NaN,NaN,4,26,여자,yes,yes,yes,yes,no,2022-11-22_12h26.45.095,Main,2022.2.4,59.5453238164227
32,넌 슬기로워,2,Green,A,6.16666666666667,4.1,ScrollDown,ScrollUp,Green.png,2,Positive,Congruent,,,NaN,,,NaN,NaN,NaN,NaN,NaN,NaN,NaN,NaN,NaN,NaN,NaN,NaN,0,0,0,0,NaN,NaN,NaN,NaN,NaN,NaN,NaN,NaN,0,0,0,0,NaN,NaN,NaN,NaN,1,0,1,0,0,31,31,31,NaN,NaN,NaN,NaN,NaN,NaN,NaN,NaN,NaN,NaN,NaN,NaN,NaN,NaN,NaN,NaN,NaN,NaN,NaN,NaN,NaN,,NaN,NaN,NaN,NaN,NaN,NaN,NaN,NaN,NaN,NaN,NaN,,,NaN,NaN,NaN,NaN,537.6303122,537.6303122,537.6303122,537.6303122,537.6303122,1.37962962962963,0.91221070000006,ScrollDown,정답,538.5041686,538.5041686,538.9888355,539.5253206,NaN,,NaN,NaN,NaN,,,NaN,,,NaN,NaN,NaN,,NaN,NaN,NaN,NaN,NaN,NaN,NaN,4,26,여자,yes,yes,yes,yes,no,2022-11-22_12h26.45.095,Main,2022.2.4,59.5453238164227
33,넌 냉혹해,5,Green,A,2.58333333333333,2.1,ScrollDown,ScrollUp,Green.png,2,Negative,Incongruent,,,NaN,,,NaN,NaN,NaN,NaN,NaN,NaN,NaN,NaN,NaN,NaN,NaN,NaN,0,0,0,0,NaN,NaN,NaN,NaN,NaN,NaN,NaN,NaN,0,0,0,0,NaN,NaN,NaN,NaN,1,0,1,0,0,32,32,32,NaN,NaN,NaN,NaN,NaN,NaN,NaN,NaN,NaN,NaN,NaN,NaN,NaN,NaN,NaN,NaN,NaN,NaN,NaN,NaN,NaN,,NaN,NaN,NaN,NaN,NaN,NaN,NaN,NaN,NaN,NaN,NaN,,,NaN,NaN,NaN,NaN,539.5253206,539.5253206,539.5253206,539.5253206,539.5253206,1.2962962962963,1.72900549999986,ScrollDown,정답,541.2328805,541.2328805,541.7176788,542.2722823,NaN,,NaN,NaN,NaN,,,NaN,,,NaN,NaN,NaN,,NaN,NaN,NaN,NaN,NaN,NaN,NaN,4,26,여자,yes,yes,yes,yes,no,2022-11-22_12h26.45.095,Main,2022.2.4,59.5453238164227
34,나를 데려가줘,6,Orange,B,0,0,ScrollDown,ScrollUp,Orange.png,2,NonTarget,NonTarget,,,NaN,,,NaN,NaN,NaN,NaN,NaN,NaN,NaN,NaN,NaN,NaN,NaN,NaN,0,0,0,0,NaN,NaN,NaN,NaN,NaN,NaN,NaN,NaN,0,0,0,0,NaN,NaN,NaN,NaN,1,0,1,0,0,33,33,33,NaN,NaN,NaN,NaN,NaN,NaN,NaN,NaN,NaN,NaN,NaN,NaN,NaN,NaN,NaN,NaN,NaN,NaN,NaN,NaN,NaN,,NaN,NaN,NaN,NaN,NaN,NaN,NaN,NaN,NaN,NaN,NaN,,,NaN,NaN,NaN,NaN,542.2722823,542.2722823,542.2722823,542.2722823,542.2722823,1.35185185185185,1.06522689999997,ScrollDown,정답,543.2958727,543.2958727,543.7801114,544.3185548,NaN,,NaN,NaN,NaN,,,NaN,,,NaN,NaN,NaN,,NaN,NaN,NaN,NaN,NaN,NaN,NaN,4,26,여자,yes,yes,yes,yes,no,2022-11-22_12h26.45.095,Main,2022.2.4,59.5453238164227
35,넌 편파적이야,5,Orange,B,2.125,2,ScrollUp,ScrollDown,Orange.png,2,Negative,Congruent,,,NaN,,,NaN,NaN,NaN,NaN,NaN,NaN,NaN,NaN,NaN,NaN,NaN,NaN,0,0,0,0,NaN,NaN,NaN,NaN,NaN,NaN,NaN,NaN,0,0,0,0,NaN,NaN,NaN,NaN,1,0,1,0,0,34,34,34,NaN,NaN,NaN,NaN,NaN,NaN,NaN,NaN,NaN,NaN,NaN,NaN,NaN,NaN,NaN,NaN,NaN,NaN,NaN,NaN,NaN,,NaN,NaN,NaN,NaN,NaN,NaN,NaN,NaN,NaN,NaN,NaN,,,NaN,NaN,NaN,NaN,544.3185548,544.3185548,544.3185548,544.3185548,544.3185548,1.53086419753086,0.806500400000004,NoResponse,무응답,545.1060412,545.1060412,545.5897597,546.1436654,NaN,,NaN,NaN,NaN,,,NaN,,,NaN,NaN,NaN,,NaN,NaN,NaN,NaN,NaN,NaN,NaN,4,26,여자,yes,yes,yes,yes,no,2022-11-22_12h26.45.095,Main,2022.2.4,59.5453238164227
36,넌 슬퍼,4,Green,A,2.58333333333333,3.06666666666667,ScrollDown,ScrollUp,Green.png,2,Negative,Incongruent,,,NaN,,,NaN,NaN,NaN,NaN,NaN,NaN,NaN,NaN,NaN,NaN,NaN,NaN,0,0,0,0,NaN,NaN,NaN,NaN,NaN,NaN,NaN,NaN,0,0,0,0,NaN,NaN,NaN,NaN,1,0,1,0,0,35,35,35,NaN,NaN,NaN,NaN,NaN,NaN,NaN,NaN,NaN,NaN,NaN,NaN,NaN,NaN,NaN,NaN,NaN,NaN,NaN,NaN,NaN,,NaN,NaN,NaN,NaN,NaN,NaN,NaN,NaN,NaN,NaN,NaN,,,NaN,NaN,NaN,NaN,546.1436654,546.1436654,546.1436654,546.1436654,546.1436654,1.24537037037037,2.6308932999998,ScrollDown,정답,548.7374162,548.7374162,549.2220785,549.7778159,NaN,,NaN,NaN,NaN,,,NaN,,,NaN,NaN,NaN,,NaN,NaN,NaN,NaN,NaN,NaN,NaN,4,26,여자,yes,yes,yes,yes,no,2022-11-22_12h26.45.095,Main,2022.2.4,59.5453238164227
37,나를 데려가줘,6,Orange,B,0,0,ScrollDown,ScrollUp,Orange.png,2,NonTarget,NonTarget,,,NaN,,,NaN,NaN,NaN,NaN,NaN,NaN,NaN,NaN,NaN,NaN,NaN,NaN,0,0,0,0,NaN,NaN,NaN,NaN,NaN,NaN,NaN,NaN,0,0,0,0,NaN,NaN,NaN,NaN,1,0,1,0,0,36,36,36,NaN,NaN,NaN,NaN,NaN,NaN,NaN,NaN,NaN,NaN,NaN,NaN,NaN,NaN,NaN,NaN,NaN,NaN,NaN,NaN,NaN,,NaN,NaN,NaN,NaN,NaN,NaN,NaN,NaN,NaN,NaN,NaN,,,NaN,NaN,NaN,NaN,549.7778159,549.7778159,549.7778159,549.7778159,549.7778159,1.12962962962963,1.84472430000005,ScrollDown,정답,551.5817208,551.5817208,552.0661158,552.6029491,NaN,,NaN,NaN,NaN,,,NaN,,,NaN,NaN,NaN,,NaN,NaN,NaN,NaN,NaN,NaN,NaN,4,26,여자,yes,yes,yes,yes,no,2022-11-22_12h26.45.095,Main,2022.2.4,59.5453238164227
38,넌 친절해,1,Orange,B,6.04166666666667,5.53333333333333,ScrollUp,ScrollDown,Orange.png,2,Positive,Incongruent,,,NaN,,,NaN,NaN,NaN,NaN,NaN,NaN,NaN,NaN,NaN,NaN,NaN,NaN,0,0,0,0,NaN,NaN,NaN,NaN,NaN,NaN,NaN,NaN,0,0,0,0,NaN,NaN,NaN,NaN,1,0,1,0,0,37,37,37,NaN,NaN,NaN,NaN,NaN,NaN,NaN,NaN,NaN,NaN,NaN,NaN,NaN,NaN,NaN,NaN,NaN,NaN,NaN,NaN,NaN,,NaN,NaN,NaN,NaN,NaN,NaN,NaN,NaN,NaN,NaN,NaN,,,NaN,NaN,NaN,NaN,552.6029491,552.6029491,552.6029491,552.6029491,552.6029491,1.68827160493827,1.15071409999996,ScrollUp,정답,553.7293156,553.7293156,554.2134744,554.7154539,NaN,,NaN,NaN,NaN,,,NaN,,,NaN,NaN,NaN,,NaN,NaN,NaN,NaN,NaN,NaN,NaN,4,26,여자,yes,yes,yes,yes,no,2022-11-22_12h26.45.095,Main,2022.2.4,59.5453238164227
NaN,,NaN,,,NaN,NaN,,,,NaN,,,,,NaN,,,NaN,NaN,NaN,NaN,NaN,NaN,NaN,NaN,NaN,NaN,NaN,NaN,0,0,0,0,NaN,NaN,NaN,NaN,NaN,NaN,NaN,NaN,0,0,0,0,NaN,NaN,NaN,NaN,1,0,1,0,NaN,NaN,NaN,NaN,0,0,0,0,NaN,NaN,NaN,NaN,NaN,NaN,NaN,NaN,NaN,NaN,NaN,NaN,NaN,NaN,NaN,NaN,NaN,,NaN,NaN,NaN,NaN,NaN,NaN,NaN,NaN,NaN,NaN,NaN,,,NaN,NaN,NaN,NaN,NaN,NaN,NaN,NaN,NaN,NaN,NaN,,,NaN,NaN,NaN,NaN,3,,NaN,NaN,NaN,,,NaN,,,NaN,NaN,NaN,,NaN,NaN,NaN,NaN,NaN,NaN,NaN,4,26,여자,yes,yes,yes,yes,no,2022-11-22_12h26.45.095,Main,2022.2.4,59.5453238164227
NaN,,NaN,,,NaN,NaN,,,,NaN,,,,,NaN,,,NaN,NaN,NaN,NaN,NaN,NaN,NaN,NaN,NaN,NaN,NaN,NaN,0,0,0,0,NaN,NaN,NaN,NaN,NaN,NaN,NaN,NaN,0,0,0,0,NaN,NaN,NaN,NaN,1,0,1,0,NaN,NaN,NaN,NaN,NaN,NaN,NaN,NaN,NaN,NaN,NaN,NaN,NaN,NaN,NaN,NaN,NaN,NaN,NaN,NaN,NaN,NaN,NaN,NaN,NaN,,NaN,NaN,NaN,NaN,NaN,NaN,NaN,NaN,NaN,NaN,NaN,,,NaN,NaN,NaN,NaN,NaN,NaN,NaN,NaN,NaN,NaN,NaN,,,NaN,NaN,NaN,NaN,NaN,,NaN,NaN,NaN,,,NaN,,,NaN,NaN,NaN,,NaN,NaN,NaN,NaN,NaN,NaN,NaN,4,26,여자,yes,yes,yes,yes,no,2022-11-22_12h26.45.095,Main,2022.2.4,59.5453238164227
1,넌 엉성해,4,Green,A,3,3.3,ScrollDown,ScrollUp,Green.png,3,Negative,Incongruent,,,NaN,,,NaN,NaN,NaN,NaN,NaN,NaN,NaN,NaN,NaN,NaN,NaN,NaN,0,0,0,0,NaN,NaN,NaN,NaN,NaN,NaN,NaN,NaN,0,0,0,0,NaN,NaN,NaN,NaN,2,0,2,0,0,0,0,0,NaN,NaN,NaN,NaN,NaN,NaN,NaN,NaN,NaN,NaN,NaN,NaN,NaN,NaN,NaN,NaN,NaN,NaN,NaN,NaN,NaN,,NaN,NaN,NaN,NaN,NaN,NaN,NaN,NaN,NaN,NaN,NaN,,,NaN,NaN,NaN,NaN,593.3670343,593.3670343,593.3670343,593.3670343,593.3670343,1.20679012345679,1.1661345,ScrollDown,정답,594.4833466,594.4833466,594.9677929,595.498847,NaN,,NaN,NaN,NaN,,,NaN,,,NaN,NaN,NaN,,NaN,NaN,NaN,NaN,NaN,NaN,NaN,4,26,여자,yes,yes,yes,yes,no,2022-11-22_12h26.45.095,Main,2022.2.4,59.5453238164227
2,나를 보내줘,6,Green,A,0,0,ScrollUp,ScrollDown,Green.png,3,NonTarget,NonTarget,,,NaN,,,NaN,NaN,NaN,NaN,NaN,NaN,NaN,NaN,NaN,NaN,NaN,NaN,0,0,0,0,NaN,NaN,NaN,NaN,NaN,NaN,NaN,NaN,0,0,0,0,NaN,NaN,NaN,NaN,2,0,2,0,0,1,1,1,NaN,NaN,NaN,NaN,NaN,NaN,NaN,NaN,NaN,NaN,NaN,NaN,NaN,NaN,NaN,NaN,NaN,NaN,NaN,NaN,NaN,,NaN,NaN,NaN,NaN,NaN,NaN,NaN,NaN,NaN,NaN,NaN,,,NaN,NaN,NaN,NaN,595.498847,595.498847,595.498847,595.498847,595.498847,1.625,1.17599649999988,ScrollUp,정답,596.6564019,596.6564019,597.140296,597.7047438,NaN,,NaN,NaN,NaN,,,NaN,,,NaN,NaN,NaN,,NaN,NaN,NaN,NaN,NaN,NaN,NaN,4,26,여자,yes,yes,yes,yes,no,2022-11-22_12h26.45.095,Main,2022.2.4,59.5453238164227
3,넌 활발해,1,Orange,B,5.66666666666667,5.6,ScrollUp,ScrollDown,Orange.png,3,Positive,Incongruent,,,NaN,,,NaN,NaN,NaN,NaN,NaN,NaN,NaN,NaN,NaN,NaN,NaN,NaN,0,0,0,0,NaN,NaN,NaN,NaN,NaN,NaN,NaN,NaN,0,0,0,0,NaN,NaN,NaN,NaN,2,0,2,0,0,2,2,2,NaN,NaN,NaN,NaN,NaN,NaN,NaN,NaN,NaN,NaN,NaN,NaN,NaN,NaN,NaN,NaN,NaN,NaN,NaN,NaN,NaN,,NaN,NaN,NaN,NaN,NaN,NaN,NaN,NaN,NaN,NaN,NaN,,,NaN,NaN,NaN,NaN,597.7047438,597.7047438,597.7047438,597.7047438,597.7047438,1.62654320987654,1.0259031999999,ScrollUp,정답,598.6803738,598.6803738,599.1658061,599.7256572,NaN,,NaN,NaN,NaN,,,NaN,,,NaN,NaN,NaN,,NaN,NaN,NaN,NaN,NaN,NaN,NaN,4,26,여자,yes,yes,yes,yes,no,2022-11-22_12h26.45.095,Main,2022.2.4,59.5453238164227
4,넌 논리적이야,2,Green,A,5.66666666666667,4.63333333333333,ScrollDown,ScrollUp,Green.png,3,Positive,Congruent,,,NaN,,,NaN,NaN,NaN,NaN,NaN,NaN,NaN,NaN,NaN,NaN,NaN,NaN,0,0,0,0,NaN,NaN,NaN,NaN,NaN,NaN,NaN,NaN,0,0,0,0,NaN,NaN,NaN,NaN,2,0,2,0,0,3,3,3,NaN,NaN,NaN,NaN,NaN,NaN,NaN,NaN,NaN,NaN,NaN,NaN,NaN,NaN,NaN,NaN,NaN,NaN,NaN,NaN,NaN,,NaN,NaN,NaN,NaN,NaN,NaN,NaN,NaN,NaN,NaN,NaN,,,NaN,NaN,NaN,NaN,599.7256572,599.7256572,599.7256572,599.7256572,599.7256572,1.40123456790123,0.850276099999974,ScrollDown,정답,600.5283024,600.5283024,601.0129927,601.5458609,NaN,,NaN,NaN,NaN,,,NaN,,,NaN,NaN,NaN,,NaN,NaN,NaN,NaN,NaN,NaN,NaN,4,26,여자,yes,yes,yes,yes,no,2022-11-22_12h26.45.095,Main,2022.2.4,59.5453238164227
5,넌 과묵해,3,Green,A,3.875,4.4,ScrollDown,ScrollUp,Green.png,3,Neutral,Neutral,,,NaN,,,NaN,NaN,NaN,NaN,NaN,NaN,NaN,NaN,NaN,NaN,NaN,NaN,0,0,0,0,NaN,NaN,NaN,NaN,NaN,NaN,NaN,NaN,0,0,0,0,NaN,NaN,NaN,NaN,2,0,2,0,0,4,4,4,NaN,NaN,NaN,NaN,NaN,NaN,NaN,NaN,NaN,NaN,NaN,NaN,NaN,NaN,NaN,NaN,NaN,NaN,NaN,NaN,NaN,,NaN,NaN,NaN,NaN,NaN,NaN,NaN,NaN,NaN,NaN,NaN,,,NaN,NaN,NaN,NaN,601.5458609,601.5458609,601.5458609,601.5458609,601.5458609,1.25308641975309,1.59282180000014,ScrollDown,정답,603.1187193,603.1187193,603.6038145,604.1609488,NaN,,NaN,NaN,NaN,,,NaN,,,NaN,NaN,NaN,,NaN,NaN,NaN,NaN,NaN,NaN,NaN,4,26,여자,yes,yes,yes,yes,no,2022-11-22_12h26.45.095,Main,2022.2.4,59.5453238164227
6,나를 데려가줘,6,Orange,B,0,0,ScrollDown,ScrollUp,Orange.png,3,NonTarget,NonTarget,,,NaN,,,NaN,NaN,NaN,NaN,NaN,NaN,NaN,NaN,NaN,NaN,NaN,NaN,0,0,0,0,NaN,NaN,NaN,NaN,NaN,NaN,NaN,NaN,0,0,0,0,NaN,NaN,NaN,NaN,2,0,2,0,0,5,5,5,NaN,NaN,NaN,NaN,NaN,NaN,NaN,NaN,NaN,NaN,NaN,NaN,NaN,NaN,NaN,NaN,NaN,NaN,NaN,NaN,NaN,,NaN,NaN,NaN,NaN,NaN,NaN,NaN,NaN,NaN,NaN,NaN,,,NaN,NaN,NaN,NaN,604.1609488,604.1609488,604.1609488,604.1609488,604.1609488,1.15123456790123,1.04548890000001,ScrollDown,정답,605.162413,605.162413,605.6474301,606.1762902,NaN,,NaN,NaN,NaN,,,NaN,,,NaN,NaN,NaN,,NaN,NaN,NaN,NaN,NaN,NaN,NaN,4,26,여자,yes,yes,yes,yes,no,2022-11-22_12h26.45.095,Main,2022.2.4,59.5453238164227
7,넌 미숙해,4,Orange,B,3,3,ScrollUp,ScrollDown,Orange.png,3,Negative,Congruent,,,NaN,,,NaN,NaN,NaN,NaN,NaN,NaN,NaN,NaN,NaN,NaN,NaN,NaN,0,0,0,0,NaN,NaN,NaN,NaN,NaN,NaN,NaN,NaN,0,0,0,0,NaN,NaN,NaN,NaN,2,0,2,0,0,6,6,6,NaN,NaN,NaN,NaN,NaN,NaN,NaN,NaN,NaN,NaN,NaN,NaN,NaN,NaN,NaN,NaN,NaN,NaN,NaN,NaN,NaN,,NaN,NaN,NaN,NaN,NaN,NaN,NaN,NaN,NaN,NaN,NaN,,,NaN,NaN,NaN,NaN,606.1762902,606.1762902,606.1762902,606.1762902,606.1762902,1.70987654320988,0.873998000000029,ScrollUp,정답,607.0345295,607.0345295,607.5189663,608.0746465,NaN,,NaN,NaN,NaN,,,NaN,,,NaN,NaN,NaN,,NaN,NaN,NaN,NaN,NaN,NaN,NaN,4,26,여자,yes,yes,yes,yes,no,2022-11-22_12h26.45.095,Main,2022.2.4,59.5453238164227
8,나를 보내줘,6,Green,A,0,0,ScrollUp,ScrollDown,Green.png,3,NonTarget,NonTarget,,,NaN,,,NaN,NaN,NaN,NaN,NaN,NaN,NaN,NaN,NaN,NaN,NaN,NaN,0,0,0,0,NaN,NaN,NaN,NaN,NaN,NaN,NaN,NaN,0,0,0,0,NaN,NaN,NaN,NaN,2,0,2,0,0,7,7,7,NaN,NaN,NaN,NaN,NaN,NaN,NaN,NaN,NaN,NaN,NaN,NaN,NaN,NaN,NaN,NaN,NaN,NaN,NaN,NaN,NaN,,NaN,NaN,NaN,NaN,NaN,NaN,NaN,NaN,NaN,NaN,NaN,,,NaN,NaN,NaN,NaN,608.0746465,608.0746465,608.0746465,608.0746465,608.0746465,1.63734567901235,1.14797369999997,ScrollUp,정답,609.1825785,609.1825785,609.6679165,610.2206694,NaN,,NaN,NaN,NaN,,,NaN,,,NaN,NaN,NaN,,NaN,NaN,NaN,NaN,NaN,NaN,NaN,4,26,여자,yes,yes,yes,yes,no,2022-11-22_12h26.45.095,Main,2022.2.4,59.5453238164227
9,넌 자신만만해,3,Orange,B,4.83333333333333,4.33333333333333,ScrollUp,ScrollDown,Orange.png,3,Neutral,Neutral,,,NaN,,,NaN,NaN,NaN,NaN,NaN,NaN,NaN,NaN,NaN,NaN,NaN,NaN,0,0,0,0,NaN,NaN,NaN,NaN,NaN,NaN,NaN,NaN,0,0,0,0,NaN,NaN,NaN,NaN,2,0,2,0,0,8,8,8,NaN,NaN,NaN,NaN,NaN,NaN,NaN,NaN,NaN,NaN,NaN,NaN,NaN,NaN,NaN,NaN,NaN,NaN,NaN,NaN,NaN,,NaN,NaN,NaN,NaN,NaN,NaN,NaN,NaN,NaN,NaN,NaN,,,NaN,NaN,NaN,NaN,610.2206694,610.2206694,610.2206694,610.2206694,610.2206694,1.85648148148148,1.11841099999992,ScrollUp,정답,611.2989718,611.2989718,611.7843426,612.3511089,NaN,,NaN,NaN,NaN,,,NaN,,,NaN,NaN,NaN,,NaN,NaN,NaN,NaN,NaN,NaN,NaN,4,26,여자,yes,yes,yes,yes,no,2022-11-22_12h26.45.095,Main,2022.2.4,59.5453238164227
10,넌 탐욕스러워,5,Green,A,2.25,2.1,ScrollDown,ScrollUp,Green.png,3,Negative,Incongruent,,,NaN,,,NaN,NaN,NaN,NaN,NaN,NaN,NaN,NaN,NaN,NaN,NaN,NaN,0,0,0,0,NaN,NaN,NaN,NaN,NaN,NaN,NaN,NaN,0,0,0,0,NaN,NaN,NaN,NaN,2,0,2,0,0,9,9,9,NaN,NaN,NaN,NaN,NaN,NaN,NaN,NaN,NaN,NaN,NaN,NaN,NaN,NaN,NaN,NaN,NaN,NaN,NaN,NaN,NaN,,NaN,NaN,NaN,NaN,NaN,NaN,NaN,NaN,NaN,NaN,NaN,,,NaN,NaN,NaN,NaN,612.3511089,612.3511089,612.3511089,612.3511089,612.3511089,1.2037037037037,0.907653200000141,ScrollDown,정답,613.204266,613.204266,613.6885043,614.2185062,NaN,,NaN,NaN,NaN,,,NaN,,,NaN,NaN,NaN,,NaN,NaN,NaN,NaN,NaN,NaN,NaN,4,26,여자,yes,yes,yes,yes,no,2022-11-22_12h26.45.095,Main,2022.2.4,59.5453238164227
11,넌 인기있어,2,Green,A,5.45833333333333,4.5,ScrollDown,ScrollUp,Green.png,3,Positive,Congruent,,,NaN,,,NaN,NaN,NaN,NaN,NaN,NaN,NaN,NaN,NaN,NaN,NaN,NaN,0,0,0,0,NaN,NaN,NaN,NaN,NaN,NaN,NaN,NaN,0,0,0,0,NaN,NaN,NaN,NaN,2,0,2,0,0,10,10,10,NaN,NaN,NaN,NaN,NaN,NaN,NaN,NaN,NaN,NaN,NaN,NaN,NaN,NaN,NaN,NaN,NaN,NaN,NaN,NaN,NaN,,NaN,NaN,NaN,NaN,NaN,NaN,NaN,NaN,NaN,NaN,NaN,,,NaN,NaN,NaN,NaN,614.2185062,614.2185062,614.2185062,614.2185062,614.2185062,1.04783950617284,0.867592300000069,ScrollDown,정답,615.0706573,615.0706573,615.555433,616.1094529,NaN,,NaN,NaN,NaN,,,NaN,,,NaN,NaN,NaN,,NaN,NaN,NaN,NaN,NaN,NaN,NaN,4,26,여자,yes,yes,yes,yes,no,2022-11-22_12h26.45.095,Main,2022.2.4,59.5453238164227
12,나를 데려가줘,6,Orange,B,0,0,ScrollDown,ScrollUp,Orange.png,3,NonTarget,NonTarget,,,NaN,,,NaN,NaN,NaN,NaN,NaN,NaN,NaN,NaN,NaN,NaN,NaN,NaN,0,0,0,0,NaN,NaN,NaN,NaN,NaN,NaN,NaN,NaN,0,0,0,0,NaN,NaN,NaN,NaN,2,0,2,0,0,11,11,11,NaN,NaN,NaN,NaN,NaN,NaN,NaN,NaN,NaN,NaN,NaN,NaN,NaN,NaN,NaN,NaN,NaN,NaN,NaN,NaN,NaN,,NaN,NaN,NaN,NaN,NaN,NaN,NaN,NaN,NaN,NaN,NaN,,,NaN,NaN,NaN,NaN,616.1094529,616.1094529,616.1094529,616.1094529,616.1094529,1.19753086419753,1.01593170000001,ScrollDown,정답,617.0855351,617.0855351,617.5704224,618.1050651,NaN,,NaN,NaN,NaN,,,NaN,,,NaN,NaN,NaN,,NaN,NaN,NaN,NaN,NaN,NaN,NaN,4,26,여자,yes,yes,yes,yes,no,2022-11-22_12h26.45.095,Main,2022.2.4,59.5453238164227
13,넌 뛰어나,2,Orange,B,6.16666666666667,4,ScrollUp,ScrollDown,Orange.png,3,Positive,Incongruent,,,NaN,,,NaN,NaN,NaN,NaN,NaN,NaN,NaN,NaN,NaN,NaN,NaN,NaN,0,0,0,0,NaN,NaN,NaN,NaN,NaN,NaN,NaN,NaN,0,0,0,0,NaN,NaN,NaN,NaN,2,0,2,0,0,12,12,12,NaN,NaN,NaN,NaN,NaN,NaN,NaN,NaN,NaN,NaN,NaN,NaN,NaN,NaN,NaN,NaN,NaN,NaN,NaN,NaN,NaN,,NaN,NaN,NaN,NaN,NaN,NaN,NaN,NaN,NaN,NaN,NaN,,,NaN,NaN,NaN,NaN,618.1050651,618.1050651,618.1050651,618.1050651,618.1050651,1.66975308641975,1.0108616,ScrollUp,정답,619.0936808,619.0936808,619.5783529,620.1366013,NaN,,NaN,NaN,NaN,,,NaN,,,NaN,NaN,NaN,,NaN,NaN,NaN,NaN,NaN,NaN,NaN,4,26,여자,yes,yes,yes,yes,no,2022-11-22_12h26.45.095,Main,2022.2.4,59.5453238164227
14,넌 낙관적이야,1,Green,A,5.75,5.8,ScrollDown,ScrollUp,Green.png,3,Positive,Congruent,,,NaN,,,NaN,NaN,NaN,NaN,NaN,NaN,NaN,NaN,NaN,NaN,NaN,NaN,0,0,0,0,NaN,NaN,NaN,NaN,NaN,NaN,NaN,NaN,0,0,0,0,NaN,NaN,NaN,NaN,2,0,2,0,0,13,13,13,NaN,NaN,NaN,NaN,NaN,NaN,NaN,NaN,NaN,NaN,NaN,NaN,NaN,NaN,NaN,NaN,NaN,NaN,NaN,NaN,NaN,,NaN,NaN,NaN,NaN,NaN,NaN,NaN,NaN,NaN,NaN,NaN,,,NaN,NaN,NaN,NaN,620.1366013,620.1366013,620.1366013,620.1366013,620.1366013,1.25617283950617,0.88762880000013,ScrollDown,정답,620.9805534,620.9805534,621.4655003,622.0265724,NaN,,NaN,NaN,NaN,,,NaN,,,NaN,NaN,NaN,,NaN,NaN,NaN,NaN,NaN,NaN,NaN,4,26,여자,yes,yes,yes,yes,no,2022-11-22_12h26.45.095,Main,2022.2.4,59.5453238164227
15,넌 산만해,4,Orange,B,2.69565217391304,3.03333333333333,ScrollUp,ScrollDown,Orange.png,3,Negative,Congruent,,,NaN,,,NaN,NaN,NaN,NaN,NaN,NaN,NaN,NaN,NaN,NaN,NaN,NaN,0,0,0,0,NaN,NaN,NaN,NaN,NaN,NaN,NaN,NaN,0,0,0,0,NaN,NaN,NaN,NaN,2,0,2,0,0,14,14,14,NaN,NaN,NaN,NaN,NaN,NaN,NaN,NaN,NaN,NaN,NaN,NaN,NaN,NaN,NaN,NaN,NaN,NaN,NaN,NaN,NaN,,NaN,NaN,NaN,NaN,NaN,NaN,NaN,NaN,NaN,NaN,NaN,,,NaN,NaN,NaN,NaN,622.0265724,622.0265724,622.0265724,622.0265724,622.0265724,1.82253086419753,0.865080500000204,ScrollUp,정답,622.8446611,622.8446611,623.3293652,623.8830435,NaN,,NaN,NaN,NaN,,,NaN,,,NaN,NaN,NaN,,NaN,NaN,NaN,NaN,NaN,NaN,NaN,4,26,여자,yes,yes,yes,yes,no,2022-11-22_12h26.45.095,Main,2022.2.4,59.5453238164227
16,나를 보내줘,6,Green,A,0,0,ScrollUp,ScrollDown,Green.png,3,NonTarget,NonTarget,,,NaN,,,NaN,NaN,NaN,NaN,NaN,NaN,NaN,NaN,NaN,NaN,NaN,NaN,0,0,0,0,NaN,NaN,NaN,NaN,NaN,NaN,NaN,NaN,0,0,0,0,NaN,NaN,NaN,NaN,2,0,2,0,0,15,15,15,NaN,NaN,NaN,NaN,NaN,NaN,NaN,NaN,NaN,NaN,NaN,NaN,NaN,NaN,NaN,NaN,NaN,NaN,NaN,NaN,NaN,,NaN,NaN,NaN,NaN,NaN,NaN,NaN,NaN,NaN,NaN,NaN,,,NaN,NaN,NaN,NaN,623.8830435,623.8830435,623.8830435,623.8830435,623.8830435,1.64043209876543,0.92800370000009,ScrollUp,정답,624.7691143,624.7691143,625.2540885,625.8141115,NaN,,NaN,NaN,NaN,,,NaN,,,NaN,NaN,NaN,,NaN,NaN,NaN,NaN,NaN,NaN,NaN,4,26,여자,yes,yes,yes,yes,no,2022-11-22_12h26.45.095,Main,2022.2.4,59.5453238164227
17,넌 교활해,5,Orange,B,2.33333333333333,2.13333333333333,ScrollUp,ScrollDown,Orange.png,3,Negative,Congruent,,,NaN,,,NaN,NaN,NaN,NaN,NaN,NaN,NaN,NaN,NaN,NaN,NaN,NaN,0,0,0,0,NaN,NaN,NaN,NaN,NaN,NaN,NaN,NaN,0,0,0,0,NaN,NaN,NaN,NaN,2,0,2,0,0,16,16,16,NaN,NaN,NaN,NaN,NaN,NaN,NaN,NaN,NaN,NaN,NaN,NaN,NaN,NaN,NaN,NaN,NaN,NaN,NaN,NaN,NaN,,NaN,NaN,NaN,NaN,NaN,NaN,NaN,NaN,NaN,NaN,NaN,,,NaN,NaN,NaN,NaN,625.8141115,625.8141115,625.8141115,625.8141115,625.8141115,1.81944444444444,0.874555099999952,ScrollUp,정답,626.6411648,626.6411648,627.1254695,627.6743646,NaN,,NaN,NaN,NaN,,,NaN,,,NaN,NaN,NaN,,NaN,NaN,NaN,NaN,NaN,NaN,NaN,4,26,여자,yes,yes,yes,yes,no,2022-11-22_12h26.45.095,Main,2022.2.4,59.5453238164227
18,나를 보내줘,6,Green,A,0,0,ScrollUp,ScrollDown,Green.png,3,NonTarget,NonTarget,,,NaN,,,NaN,NaN,NaN,NaN,NaN,NaN,NaN,NaN,NaN,NaN,NaN,NaN,0,0,0,0,NaN,NaN,NaN,NaN,NaN,NaN,NaN,NaN,0,0,0,0,NaN,NaN,NaN,NaN,2,0,2,0,0,17,17,17,NaN,NaN,NaN,NaN,NaN,NaN,NaN,NaN,NaN,NaN,NaN,NaN,NaN,NaN,NaN,NaN,NaN,NaN,NaN,NaN,NaN,,NaN,NaN,NaN,NaN,NaN,NaN,NaN,NaN,NaN,NaN,NaN,,,NaN,NaN,NaN,NaN,627.6743646,627.6743646,627.6743646,627.6743646,627.6743646,1.75,1.14267669999981,ScrollUp,정답,628.7848,628.7848,629.2693081,629.8280172,NaN,,NaN,NaN,NaN,,,NaN,,,NaN,NaN,NaN,,NaN,NaN,NaN,NaN,NaN,NaN,NaN,4,26,여자,yes,yes,yes,yes,no,2022-11-22_12h26.45.095,Main,2022.2.4,59.5453238164227
19,넌 불친절해,5,Orange,B,2.20833333333333,2.03333333333333,ScrollUp,ScrollDown,Orange.png,3,Negative,Congruent,,,NaN,,,NaN,NaN,NaN,NaN,NaN,NaN,NaN,NaN,NaN,NaN,NaN,NaN,0,0,0,0,NaN,NaN,NaN,NaN,NaN,NaN,NaN,NaN,0,0,0,0,NaN,NaN,NaN,NaN,2,0,2,0,0,18,18,18,NaN,NaN,NaN,NaN,NaN,NaN,NaN,NaN,NaN,NaN,NaN,NaN,NaN,NaN,NaN,NaN,NaN,NaN,NaN,NaN,NaN,,NaN,NaN,NaN,NaN,NaN,NaN,NaN,NaN,NaN,NaN,NaN,,,NaN,NaN,NaN,NaN,629.8280172,629.8280172,629.8280172,629.8280172,629.8280172,1.69907407407407,0.999958099999958,ScrollUp,정답,630.7832043,630.7832043,631.2683539,631.8012955,NaN,,NaN,NaN,NaN,,,NaN,,,NaN,NaN,NaN,,NaN,NaN,NaN,NaN,NaN,NaN,NaN,4,26,여자,yes,yes,yes,yes,no,2022-11-22_12h26.45.095,Main,2022.2.4,59.5453238164227
20,넌 지적이야,2,Orange,B,5.75,4.36666666666667,ScrollUp,ScrollDown,Orange.png,3,Positive,Incongruent,,,NaN,,,NaN,NaN,NaN,NaN,NaN,NaN,NaN,NaN,NaN,NaN,NaN,NaN,0,0,0,0,NaN,NaN,NaN,NaN,NaN,NaN,NaN,NaN,0,0,0,0,NaN,NaN,NaN,NaN,2,0,2,0,0,19,19,19,NaN,NaN,NaN,NaN,NaN,NaN,NaN,NaN,NaN,NaN,NaN,NaN,NaN,NaN,NaN,NaN,NaN,NaN,NaN,NaN,NaN,,NaN,NaN,NaN,NaN,NaN,NaN,NaN,NaN,NaN,NaN,NaN,,,NaN,NaN,NaN,NaN,631.8012955,631.8012955,631.8012955,631.8012955,631.8012955,1.74074074074074,0.867754899999909,ScrollUp,정답,632.6498816,632.6498816,633.1348906,633.697186,NaN,,NaN,NaN,NaN,,,NaN,,,NaN,NaN,NaN,,NaN,NaN,NaN,NaN,NaN,NaN,NaN,4,26,여자,yes,yes,yes,yes,no,2022-11-22_12h26.45.095,Main,2022.2.4,59.5453238164227
21,넌 우유부단해,4,Green,A,2.66666666666667,3.16666666666667,ScrollDown,ScrollUp,Green.png,3,Negative,Incongruent,,,NaN,,,NaN,NaN,NaN,NaN,NaN,NaN,NaN,NaN,NaN,NaN,NaN,NaN,0,0,0,0,NaN,NaN,NaN,NaN,NaN,NaN,NaN,NaN,0,0,0,0,NaN,NaN,NaN,NaN,2,0,2,0,0,20,20,20,NaN,NaN,NaN,NaN,NaN,NaN,NaN,NaN,NaN,NaN,NaN,NaN,NaN,NaN,NaN,NaN,NaN,NaN,NaN,NaN,NaN,,NaN,NaN,NaN,NaN,NaN,NaN,NaN,NaN,NaN,NaN,NaN,,,NaN,NaN,NaN,NaN,633.697186,633.697186,633.697186,633.697186,633.697186,1.27314814814815,0.73403200000007,ScrollDown,정답,634.3843197,634.3843197,634.8698057,635.4254473,NaN,,NaN,NaN,NaN,,,NaN,,,NaN,NaN,NaN,,NaN,NaN,NaN,NaN,NaN,NaN,NaN,4,26,여자,yes,yes,yes,yes,no,2022-11-22_12h26.45.095,Main,2022.2.4,59.5453238164227
22,나를 데려가줘,6,Orange,B,0,0,ScrollDown,ScrollUp,Orange.png,3,NonTarget,NonTarget,,,NaN,,,NaN,NaN,NaN,NaN,NaN,NaN,NaN,NaN,NaN,NaN,NaN,NaN,0,0,0,0,NaN,NaN,NaN,NaN,NaN,NaN,NaN,NaN,0,0,0,0,NaN,NaN,NaN,NaN,2,0,2,0,0,21,21,21,NaN,NaN,NaN,NaN,NaN,NaN,NaN,NaN,NaN,NaN,NaN,NaN,NaN,NaN,NaN,NaN,NaN,NaN,NaN,NaN,NaN,,NaN,NaN,NaN,NaN,NaN,NaN,NaN,NaN,NaN,NaN,NaN,,,NaN,NaN,NaN,NaN,635.4254473,635.4254473,635.4254473,635.4254473,635.4254473,1.31172839506173,0.969639000000143,ScrollDown,정답,636.3509707,636.3509707,636.8368575,637.36618,NaN,,NaN,NaN,NaN,,,NaN,,,NaN,NaN,NaN,,NaN,NaN,NaN,NaN,NaN,NaN,NaN,4,26,여자,yes,yes,yes,yes,no,2022-11-22_12h26.45.095,Main,2022.2.4,59.5453238164227
23,넌 성실해,1,Orange,B,6.04166666666667,5.7,ScrollUp,ScrollDown,Orange.png,3,Positive,Incongruent,,,NaN,,,NaN,NaN,NaN,NaN,NaN,NaN,NaN,NaN,NaN,NaN,NaN,NaN,0,0,0,0,NaN,NaN,NaN,NaN,NaN,NaN,NaN,NaN,0,0,0,0,NaN,NaN,NaN,NaN,2,0,2,0,0,22,22,22,NaN,NaN,NaN,NaN,NaN,NaN,NaN,NaN,NaN,NaN,NaN,NaN,NaN,NaN,NaN,NaN,NaN,NaN,NaN,NaN,NaN,,NaN,NaN,NaN,NaN,NaN,NaN,NaN,NaN,NaN,NaN,NaN,,,NaN,NaN,NaN,NaN,637.36618,637.36618,637.36618,637.36618,637.36618,1.72067901234568,0.971276900000021,ScrollUp,정답,638.3215941,638.3215941,638.8058701,639.3609402,NaN,,NaN,NaN,NaN,,,NaN,,,NaN,NaN,NaN,,NaN,NaN,NaN,NaN,NaN,NaN,NaN,4,26,여자,yes,yes,yes,yes,no,2022-11-22_12h26.45.095,Main,2022.2.4,59.5453238164227
24,넌 현실주의적이야,3,Green,A,4.625,4.4,ScrollDown,ScrollUp,Green.png,3,Neutral,Neutral,,,NaN,,,NaN,NaN,NaN,NaN,NaN,NaN,NaN,NaN,NaN,NaN,NaN,NaN,0,0,0,0,NaN,NaN,NaN,NaN,NaN,NaN,NaN,NaN,0,0,0,0,NaN,NaN,NaN,NaN,2,0,2,0,0,23,23,23,NaN,NaN,NaN,NaN,NaN,NaN,NaN,NaN,NaN,NaN,NaN,NaN,NaN,NaN,NaN,NaN,NaN,NaN,NaN,NaN,NaN,,NaN,NaN,NaN,NaN,NaN,NaN,NaN,NaN,NaN,NaN,NaN,,,NaN,NaN,NaN,NaN,639.3609402,639.3609402,639.3609402,639.3609402,639.3609402,1.48456790123457,0.969006400000126,NoResponse,무응답,640.2929742,640.2929742,640.7776787,641.3115765,NaN,,NaN,NaN,NaN,,,NaN,,,NaN,NaN,NaN,,NaN,NaN,NaN,NaN,NaN,NaN,NaN,4,26,여자,yes,yes,yes,yes,no,2022-11-22_12h26.45.095,Main,2022.2.4,59.5453238164227
25,넌 진실돼,1,Green,A,6.625,5.56666666666667,ScrollDown,ScrollUp,Green.png,3,Positive,Congruent,,,NaN,,,NaN,NaN,NaN,NaN,NaN,NaN,NaN,NaN,NaN,NaN,NaN,NaN,0,0,0,0,NaN,NaN,NaN,NaN,NaN,NaN,NaN,NaN,0,0,0,0,NaN,NaN,NaN,NaN,2,0,2,0,0,24,24,24,NaN,NaN,NaN,NaN,NaN,NaN,NaN,NaN,NaN,NaN,NaN,NaN,NaN,NaN,NaN,NaN,NaN,NaN,NaN,NaN,NaN,,NaN,NaN,NaN,NaN,NaN,NaN,NaN,NaN,NaN,NaN,NaN,,,NaN,NaN,NaN,NaN,641.3115765,641.3115765,641.3115765,641.3115765,641.3115765,1.38271604938272,1.05037659999994,ScrollDown,정답,642.3442532,642.3442532,642.8286251,643.3949325,NaN,,NaN,NaN,NaN,,,NaN,,,NaN,NaN,NaN,,NaN,NaN,NaN,NaN,NaN,NaN,NaN,4,26,여자,yes,yes,yes,yes,no,2022-11-22_12h26.45.095,Main,2022.2.4,59.5453238164227
26,넌 천진난만해,3,Orange,B,4.95833333333333,4.83333333333333,ScrollUp,ScrollDown,Orange.png,3,Neutral,Neutral,,,NaN,,,NaN,NaN,NaN,NaN,NaN,NaN,NaN,NaN,NaN,NaN,NaN,NaN,0,0,0,0,NaN,NaN,NaN,NaN,NaN,NaN,NaN,NaN,0,0,0,0,NaN,NaN,NaN,NaN,2,0,2,0,0,25,25,25,NaN,NaN,NaN,NaN,NaN,NaN,NaN,NaN,NaN,NaN,NaN,NaN,NaN,NaN,NaN,NaN,NaN,NaN,NaN,NaN,NaN,,NaN,NaN,NaN,NaN,NaN,NaN,NaN,NaN,NaN,NaN,NaN,,,NaN,NaN,NaN,NaN,643.3949325,643.3949325,643.3949325,643.3949325,643.3949325,1.68518518518519,1.0071296000001,ScrollUp,정답,644.3481633,644.3481633,644.8321897,645.3909047,NaN,,NaN,NaN,NaN,,,NaN,,,NaN,NaN,NaN,,NaN,NaN,NaN,NaN,NaN,NaN,NaN,4,26,여자,yes,yes,yes,yes,no,2022-11-22_12h26.45.095,Main,2022.2.4,59.5453238164227
27,넌 교양없어,5,Green,A,2.41666666666667,2.2,ScrollDown,ScrollUp,Green.png,3,Negative,Incongruent,,,NaN,,,NaN,NaN,NaN,NaN,NaN,NaN,NaN,NaN,NaN,NaN,NaN,NaN,0,0,0,0,NaN,NaN,NaN,NaN,NaN,NaN,NaN,NaN,0,0,0,0,NaN,NaN,NaN,NaN,2,0,2,0,0,26,26,26,NaN,NaN,NaN,NaN,NaN,NaN,NaN,NaN,NaN,NaN,NaN,NaN,NaN,NaN,NaN,NaN,NaN,NaN,NaN,NaN,NaN,,NaN,NaN,NaN,NaN,NaN,NaN,NaN,NaN,NaN,NaN,NaN,,,NaN,NaN,NaN,NaN,645.3909047,645.3909047,645.3909047,645.3909047,645.3909047,1.36882716049383,0.905323899999985,ScrollDown,정답,646.2543069,646.2543069,646.738655,647.2694018,NaN,,NaN,NaN,NaN,,,NaN,,,NaN,NaN,NaN,,NaN,NaN,NaN,NaN,NaN,NaN,NaN,4,26,여자,yes,yes,yes,yes,no,2022-11-22_12h26.45.095,Main,2022.2.4,59.5453238164227
28,나를 보내줘,6,Green,A,0,0,ScrollUp,ScrollDown,Green.png,3,NonTarget,NonTarget,,,NaN,,,NaN,NaN,NaN,NaN,NaN,NaN,NaN,NaN,NaN,NaN,NaN,NaN,0,0,0,0,NaN,NaN,NaN,NaN,NaN,NaN,NaN,NaN,0,0,0,0,NaN,NaN,NaN,NaN,2,0,2,0,0,27,27,27,NaN,NaN,NaN,NaN,NaN,NaN,NaN,NaN,NaN,NaN,NaN,NaN,NaN,NaN,NaN,NaN,NaN,NaN,NaN,NaN,NaN,,NaN,NaN,NaN,NaN,NaN,NaN,NaN,NaN,NaN,NaN,NaN,,,NaN,NaN,NaN,NaN,647.2694018,647.2694018,647.2694018,647.2694018,647.2694018,1.68827160493827,0.966005499999937,ScrollUp,정답,648.2188838,648.2188838,648.7051034,649.2454967,NaN,,NaN,NaN,NaN,,,NaN,,,NaN,NaN,NaN,,NaN,NaN,NaN,NaN,NaN,NaN,NaN,4,26,여자,yes,yes,yes,yes,no,2022-11-22_12h26.45.095,Main,2022.2.4,59.5453238164227
29,넌 엉뚱스러워,3,Green,A,4.16666666666667,4.13333333333333,ScrollDown,ScrollUp,Green.png,3,Neutral,Neutral,,,NaN,,,NaN,NaN,NaN,NaN,NaN,NaN,NaN,NaN,NaN,NaN,NaN,NaN,0,0,0,0,NaN,NaN,NaN,NaN,NaN,NaN,NaN,NaN,0,0,0,0,NaN,NaN,NaN,NaN,2,0,2,0,0,28,28,28,NaN,NaN,NaN,NaN,NaN,NaN,NaN,NaN,NaN,NaN,NaN,NaN,NaN,NaN,NaN,NaN,NaN,NaN,NaN,NaN,NaN,,NaN,NaN,NaN,NaN,NaN,NaN,NaN,NaN,NaN,NaN,NaN,,,NaN,NaN,NaN,NaN,649.2454967,649.2454967,649.2454967,649.2454967,649.2454967,1.23148148148148,1.24200970000015,ScrollDown,정답,650.4591654,650.4591654,650.9438093,651.5138978,NaN,,NaN,NaN,NaN,,,NaN,,,NaN,NaN,NaN,,NaN,NaN,NaN,NaN,NaN,NaN,NaN,4,26,여자,yes,yes,yes,yes,no,2022-11-22_12h26.45.095,Main,2022.2.4,59.5453238164227
30,넌 무지해,4,Orange,B,2.54166666666667,3.06666666666667,ScrollUp,ScrollDown,Orange.png,3,Negative,Congruent,,,NaN,,,NaN,NaN,NaN,NaN,NaN,NaN,NaN,NaN,NaN,NaN,NaN,NaN,0,0,0,0,NaN,NaN,NaN,NaN,NaN,NaN,NaN,NaN,0,0,0,0,NaN,NaN,NaN,NaN,2,0,2,0,0,29,29,29,NaN,NaN,NaN,NaN,NaN,NaN,NaN,NaN,NaN,NaN,NaN,NaN,NaN,NaN,NaN,NaN,NaN,NaN,NaN,NaN,NaN,,NaN,NaN,NaN,NaN,NaN,NaN,NaN,NaN,NaN,NaN,NaN,,,NaN,NaN,NaN,NaN,651.5138978,651.5138978,651.5138978,651.5138978,651.5138978,1.65586419753086,0.912530600000082,ScrollUp,정답,652.3755322,652.3755322,652.861066,653.4003762,NaN,,NaN,NaN,NaN,,,NaN,,,NaN,NaN,NaN,,NaN,NaN,NaN,NaN,NaN,NaN,NaN,4,26,여자,yes,yes,yes,yes,no,2022-11-22_12h26.45.095,Main,2022.2.4,59.5453238164227
31,넌 음울해,5,Orange,B,2.25,2.23333333333333,ScrollUp,ScrollDown,Orange.png,3,Negative,Congruent,,,NaN,,,NaN,NaN,NaN,NaN,NaN,NaN,NaN,NaN,NaN,NaN,NaN,NaN,0,0,0,0,NaN,NaN,NaN,NaN,NaN,NaN,NaN,NaN,0,0,0,0,NaN,NaN,NaN,NaN,2,0,2,0,0,30,30,30,NaN,NaN,NaN,NaN,NaN,NaN,NaN,NaN,NaN,NaN,NaN,NaN,NaN,NaN,NaN,NaN,NaN,NaN,NaN,NaN,NaN,,NaN,NaN,NaN,NaN,NaN,NaN,NaN,NaN,NaN,NaN,NaN,,,NaN,NaN,NaN,NaN,653.4003762,653.4003762,653.4003762,653.4003762,653.4003762,1.7037037037037,0.798333800000137,ScrollUp,정답,654.173887,654.173887,654.6587578,655.2156856,NaN,,NaN,NaN,NaN,,,NaN,,,NaN,NaN,NaN,,NaN,NaN,NaN,NaN,NaN,NaN,NaN,4,26,여자,yes,yes,yes,yes,no,2022-11-22_12h26.45.095,Main,2022.2.4,59.5453238164227
32,넌 냉소적이야,5,Green,A,2.91666666666667,2.4,ScrollDown,ScrollUp,Green.png,3,Negative,Incongruent,,,NaN,,,NaN,NaN,NaN,NaN,NaN,NaN,NaN,NaN,NaN,NaN,NaN,NaN,0,0,0,0,NaN,NaN,NaN,NaN,NaN,NaN,NaN,NaN,0,0,0,0,NaN,NaN,NaN,NaN,2,0,2,0,0,31,31,31,NaN,NaN,NaN,NaN,NaN,NaN,NaN,NaN,NaN,NaN,NaN,NaN,NaN,NaN,NaN,NaN,NaN,NaN,NaN,NaN,NaN,,NaN,NaN,NaN,NaN,NaN,NaN,NaN,NaN,NaN,NaN,NaN,,,NaN,NaN,NaN,NaN,655.2156856,655.2156856,655.2156856,655.2156856,655.2156856,1.3641975308642,0.822957100000167,ScrollDown,정답,655.9970347,655.9970347,656.4816345,657.0422542,NaN,,NaN,NaN,NaN,,,NaN,,,NaN,NaN,NaN,,NaN,NaN,NaN,NaN,NaN,NaN,NaN,4,26,여자,yes,yes,yes,yes,no,2022-11-22_12h26.45.095,Main,2022.2.4,59.5453238164227
33,나를 데려가줘,6,Orange,B,0,0,ScrollDown,ScrollUp,Orange.png,3,NonTarget,NonTarget,,,NaN,,,NaN,NaN,NaN,NaN,NaN,NaN,NaN,NaN,NaN,NaN,NaN,NaN,0,0,0,0,NaN,NaN,NaN,NaN,NaN,NaN,NaN,NaN,0,0,0,0,NaN,NaN,NaN,NaN,2,0,2,0,0,32,32,32,NaN,NaN,NaN,NaN,NaN,NaN,NaN,NaN,NaN,NaN,NaN,NaN,NaN,NaN,NaN,NaN,NaN,NaN,NaN,NaN,NaN,,NaN,NaN,NaN,NaN,NaN,NaN,NaN,NaN,NaN,NaN,NaN,,,NaN,NaN,NaN,NaN,657.0422542,657.0422542,657.0422542,657.0422542,657.0422542,1.28703703703704,0.80748820000008,ScrollDown,정답,657.8050755,657.8050755,658.2893237,658.8518318,NaN,,NaN,NaN,NaN,,,NaN,,,NaN,NaN,NaN,,NaN,NaN,NaN,NaN,NaN,NaN,NaN,4,26,여자,yes,yes,yes,yes,no,2022-11-22_12h26.45.095,Main,2022.2.4,59.5453238164227
34,넌 쾌활해,1,Green,A,5.54166666666667,5.73333333333333,ScrollDown,ScrollUp,Green.png,3,Positive,Congruent,,,NaN,,,NaN,NaN,NaN,NaN,NaN,NaN,NaN,NaN,NaN,NaN,NaN,NaN,0,0,0,0,NaN,NaN,NaN,NaN,NaN,NaN,NaN,NaN,0,0,0,0,NaN,NaN,NaN,NaN,2,0,2,0,0,33,33,33,NaN,NaN,NaN,NaN,NaN,NaN,NaN,NaN,NaN,NaN,NaN,NaN,NaN,NaN,NaN,NaN,NaN,NaN,NaN,NaN,NaN,,NaN,NaN,NaN,NaN,NaN,NaN,NaN,NaN,NaN,NaN,NaN,,,NaN,NaN,NaN,NaN,658.8518318,658.8518318,658.8518318,658.8518318,658.8518318,1.23302469135802,0.891965099999879,ScrollDown,정답,659.7002854,659.7002854,660.185823,660.7268837,NaN,,NaN,NaN,NaN,,,NaN,,,NaN,NaN,NaN,,NaN,NaN,NaN,NaN,NaN,NaN,NaN,4,26,여자,yes,yes,yes,yes,no,2022-11-22_12h26.45.095,Main,2022.2.4,59.5453238164227
35,나를 보내줘,6,Green,A,0,0,ScrollUp,ScrollDown,Green.png,3,NonTarget,NonTarget,,,NaN,,,NaN,NaN,NaN,NaN,NaN,NaN,NaN,NaN,NaN,NaN,NaN,NaN,0,0,0,0,NaN,NaN,NaN,NaN,NaN,NaN,NaN,NaN,0,0,0,0,NaN,NaN,NaN,NaN,2,0,2,0,0,34,34,34,NaN,NaN,NaN,NaN,NaN,NaN,NaN,NaN,NaN,NaN,NaN,NaN,NaN,NaN,NaN,NaN,NaN,NaN,NaN,NaN,NaN,,NaN,NaN,NaN,NaN,NaN,NaN,NaN,NaN,NaN,NaN,NaN,,,NaN,NaN,NaN,NaN,660.7268837,660.7268837,660.7268837,660.7268837,660.7268837,1.63117283950617,0.948345000000018,ScrollUp,정답,661.6493774,661.6493774,662.1333577,662.6957787,NaN,,NaN,NaN,NaN,,,NaN,,,NaN,NaN,NaN,,NaN,NaN,NaN,NaN,NaN,NaN,NaN,4,26,여자,yes,yes,yes,yes,no,2022-11-22_12h26.45.095,Main,2022.2.4,59.5453238164227
36,넌 명랑해,1,Orange,B,5.73913043478261,5.66666666666667,ScrollUp,ScrollDown,Orange.png,3,Positive,Incongruent,,,NaN,,,NaN,NaN,NaN,NaN,NaN,NaN,NaN,NaN,NaN,NaN,NaN,NaN,0,0,0,0,NaN,NaN,NaN,NaN,NaN,NaN,NaN,NaN,0,0,0,0,NaN,NaN,NaN,NaN,2,0,2,0,0,35,35,35,NaN,NaN,NaN,NaN,NaN,NaN,NaN,NaN,NaN,NaN,NaN,NaN,NaN,NaN,NaN,NaN,NaN,NaN,NaN,NaN,NaN,,NaN,NaN,NaN,NaN,NaN,NaN,NaN,NaN,NaN,NaN,NaN,,,NaN,NaN,NaN,NaN,662.6957787,662.6957787,662.6957787,662.6957787,662.6957787,1.70524691358025,2.27241049999998,ScrollUp,정답,664.9221569,664.9221569,665.4073652,665.9718982,NaN,,NaN,NaN,NaN,,,NaN,,,NaN,NaN,NaN,,NaN,NaN,NaN,NaN,NaN,NaN,NaN,4,26,여자,yes,yes,yes,yes,no,2022-11-22_12h26.45.095,Main,2022.2.4,59.5453238164227
37,넌 멍해,4,Green,A,2.83333333333333,3.4,ScrollDown,ScrollUp,Green.png,3,Negative,Incongruent,,,NaN,,,NaN,NaN,NaN,NaN,NaN,NaN,NaN,NaN,NaN,NaN,NaN,NaN,0,0,0,0,NaN,NaN,NaN,NaN,NaN,NaN,NaN,NaN,0,0,0,0,NaN,NaN,NaN,NaN,2,0,2,0,0,36,36,36,NaN,NaN,NaN,NaN,NaN,NaN,NaN,NaN,NaN,NaN,NaN,NaN,NaN,NaN,NaN,NaN,NaN,NaN,NaN,NaN,NaN,,NaN,NaN,NaN,NaN,NaN,NaN,NaN,NaN,NaN,NaN,NaN,,,NaN,NaN,NaN,NaN,665.9718982,665.9718982,665.9718982,665.9718982,665.9718982,1.29320987654321,0.936605299999883,ScrollDown,정답,666.8582244,666.8582244,667.3428874,667.9068114,NaN,,NaN,NaN,NaN,,,NaN,,,NaN,NaN,NaN,,NaN,NaN,NaN,NaN,NaN,NaN,NaN,4,26,여자,yes,yes,yes,yes,no,2022-11-22_12h26.45.095,Main,2022.2.4,59.5453238164227
38,나를 데려가줘,6,Orange,B,0,0,ScrollDown,ScrollUp,Orange.png,3,NonTarget,NonTarget,,,NaN,,,NaN,NaN,NaN,NaN,NaN,NaN,NaN,NaN,NaN,NaN,NaN,NaN,0,0,0,0,NaN,NaN,NaN,NaN,NaN,NaN,NaN,NaN,0,0,0,0,NaN,NaN,NaN,NaN,2,0,2,0,0,37,37,37,NaN,NaN,NaN,NaN,NaN,NaN,NaN,NaN,NaN,NaN,NaN,NaN,NaN,NaN,NaN,NaN,NaN,NaN,NaN,NaN,NaN,,NaN,NaN,NaN,NaN,NaN,NaN,NaN,NaN,NaN,NaN,NaN,,,NaN,NaN,NaN,NaN,667.9068114,667.9068114,667.9068114,667.9068114,667.9068114,1.27006172839506,0.96464479999986,ScrollDown,정답,668.826002,668.826002,669.310205,669.8642405,NaN,,NaN,NaN,NaN,,,NaN,,,NaN,NaN,NaN,,NaN,NaN,NaN,NaN,NaN,NaN,NaN,4,26,여자,yes,yes,yes,yes,no,2022-11-22_12h26.45.095,Main,2022.2.4,59.5453238164227
39,넌 현명해,2,Green,A,6.54166666666667,4.53333333333333,ScrollDown,ScrollUp,Green.png,3,Positive,Congruent,,,NaN,,,NaN,NaN,NaN,NaN,NaN,NaN,NaN,NaN,NaN,NaN,NaN,NaN,0,0,0,0,NaN,NaN,NaN,NaN,NaN,NaN,NaN,NaN,0,0,0,0,NaN,NaN,NaN,NaN,2,0,2,0,0,38,38,38,NaN,NaN,NaN,NaN,NaN,NaN,NaN,NaN,NaN,NaN,NaN,NaN,NaN,NaN,NaN,NaN,NaN,NaN,NaN,NaN,NaN,,NaN,NaN,NaN,NaN,NaN,NaN,NaN,NaN,NaN,NaN,NaN,,,NaN,NaN,NaN,NaN,669.8642405,669.8642405,669.8642405,669.8642405,669.8642405,1.24845679012346,0.804820199999995,ScrollDown,정답,670.6303912,670.6303912,671.1163091,671.6821503,NaN,,NaN,NaN,NaN,,,NaN,,,NaN,NaN,NaN,,NaN,NaN,NaN,NaN,NaN,NaN,NaN,4,26,여자,yes,yes,yes,yes,no,2022-11-22_12h26.45.095,Main,2022.2.4,59.5453238164227
40,넌 수줍어,3,Orange,B,3.54166666666667,4.36666666666667,ScrollUp,ScrollDown,Orange.png,3,Neutral,Neutral,,,NaN,,,NaN,NaN,NaN,NaN,NaN,NaN,NaN,NaN,NaN,NaN,NaN,NaN,0,0,0,0,NaN,NaN,NaN,NaN,NaN,NaN,NaN,NaN,0,0,0,0,NaN,NaN,NaN,NaN,2,0,2,0,0,39,39,39,NaN,NaN,NaN,NaN,NaN,NaN,NaN,NaN,NaN,NaN,NaN,NaN,NaN,NaN,NaN,NaN,NaN,NaN,NaN,NaN,NaN,,NaN,NaN,NaN,NaN,NaN,NaN,NaN,NaN,NaN,NaN,NaN,,,NaN,NaN,NaN,NaN,671.6821503,671.6821503,671.6821503,671.6821503,671.6821503,1.6466049382716,0.843780000000152,ScrollUp,정답,672.4762562,672.4762562,672.9617154,673.4923598,NaN,,NaN,NaN,NaN,,,NaN,,,NaN,NaN,NaN,,NaN,NaN,NaN,NaN,NaN,NaN,NaN,4,26,여자,yes,yes,yes,yes,no,2022-11-22_12h26.45.095,Main,2022.2.4,59.5453238164227
41,나를 데려가줘,6,Orange,B,0,0,ScrollDown,ScrollUp,Orange.png,3,NonTarget,NonTarget,,,NaN,,,NaN,NaN,NaN,NaN,NaN,NaN,NaN,NaN,NaN,NaN,NaN,NaN,0,0,0,0,NaN,NaN,NaN,NaN,NaN,NaN,NaN,NaN,0,0,0,0,NaN,NaN,NaN,NaN,2,0,2,0,0,40,40,40,NaN,NaN,NaN,NaN,NaN,NaN,NaN,NaN,NaN,NaN,NaN,NaN,NaN,NaN,NaN,NaN,NaN,NaN,NaN,NaN,NaN,,NaN,NaN,NaN,NaN,NaN,NaN,NaN,NaN,NaN,NaN,NaN,,,NaN,NaN,NaN,NaN,673.4923598,673.4923598,673.4923598,673.4923598,673.4923598,1.15432098765432,0.822896299999911,ScrollDown,정답,674.3010406,674.3010406,674.7856844,675.3181888,NaN,,NaN,NaN,NaN,,,NaN,,,NaN,NaN,NaN,,NaN,NaN,NaN,NaN,NaN,NaN,NaN,4,26,여자,yes,yes,yes,yes,no,2022-11-22_12h26.45.095,Main,2022.2.4,59.5453238164227
42,넌 성숙해,2,Orange,B,5.83333333333333,4.53333333333333,ScrollUp,ScrollDown,Orange.png,3,Positive,Incongruent,,,NaN,,,NaN,NaN,NaN,NaN,NaN,NaN,NaN,NaN,NaN,NaN,NaN,NaN,0,0,0,0,NaN,NaN,NaN,NaN,NaN,NaN,NaN,NaN,0,0,0,0,NaN,NaN,NaN,NaN,2,0,2,0,0,41,41,41,NaN,NaN,NaN,NaN,NaN,NaN,NaN,NaN,NaN,NaN,NaN,NaN,NaN,NaN,NaN,NaN,NaN,NaN,NaN,NaN,NaN,,NaN,NaN,NaN,NaN,NaN,NaN,NaN,NaN,NaN,NaN,NaN,,,NaN,NaN,NaN,NaN,675.3181888,675.3181888,675.3181888,675.3181888,675.3181888,1.66512345679012,1.05176759999995,ScrollUp,정답,676.3534805,676.3534805,676.8376626,677.343085,NaN,,NaN,NaN,NaN,,,NaN,,,NaN,NaN,NaN,,NaN,NaN,NaN,NaN,NaN,NaN,NaN,4,26,여자,yes,yes,yes,yes,no,2022-11-22_12h26.45.095,Main,2022.2.4,59.5453238164227
NaN,,NaN,,,NaN,NaN,,,,NaN,,,,,NaN,,,NaN,NaN,NaN,NaN,NaN,NaN,NaN,NaN,NaN,NaN,NaN,NaN,0,0,0,0,NaN,NaN,NaN,NaN,NaN,NaN,NaN,NaN,0,0,0,0,NaN,NaN,NaN,NaN,2,0,2,0,NaN,NaN,NaN,NaN,NaN,NaN,NaN,NaN,NaN,NaN,NaN,NaN,NaN,NaN,NaN,NaN,NaN,NaN,NaN,NaN,NaN,NaN,NaN,NaN,NaN,,NaN,NaN,NaN,NaN,NaN,NaN,NaN,NaN,NaN,NaN,NaN,,,NaN,NaN,NaN,NaN,NaN,NaN,NaN,NaN,NaN,NaN,NaN,,,NaN,NaN,NaN,NaN,4,,NaN,NaN,NaN,,,NaN,,,NaN,NaN,NaN,,NaN,NaN,NaN,NaN,NaN,NaN,NaN,4,26,여자,yes,yes,yes,yes,no,2022-11-22_12h26.45.095,Main,2022.2.4,59.5453238164227
NaN,,NaN,,,NaN,NaN,,,,NaN,,,,,NaN,,,NaN,NaN,NaN,NaN,NaN,NaN,NaN,NaN,NaN,NaN,NaN,NaN,0,0,0,0,NaN,NaN,NaN,NaN,NaN,NaN,NaN,NaN,0,0,0,0,NaN,NaN,NaN,NaN,NaN,NaN,NaN,NaN,NaN,NaN,NaN,NaN,NaN,NaN,NaN,NaN,NaN,NaN,NaN,NaN,NaN,NaN,NaN,NaN,NaN,NaN,NaN,NaN,NaN,NaN,NaN,NaN,NaN,,NaN,NaN,NaN,NaN,NaN,NaN,NaN,NaN,NaN,NaN,NaN,,,NaN,NaN,NaN,NaN,NaN,NaN,NaN,NaN,NaN,NaN,NaN,,,NaN,NaN,NaN,NaN,NaN,,NaN,NaN,NaN,,,NaN,,,NaN,NaN,NaN,,NaN,NaN,NaN,NaN,NaN,NaN,NaN,4,26,여자,yes,yes,yes,yes,no,2022-11-22_12h26.45.095,Main,2022.2.4,59.5453238164227
NaN,,NaN,,,NaN,NaN,,,,NaN,,,,,NaN,,,NaN,NaN,NaN,NaN,NaN,NaN,NaN,NaN,NaN,NaN,NaN,NaN,0,0,0,0,NaN,NaN,NaN,NaN,NaN,NaN,NaN,NaN,NaN,NaN,NaN,NaN,NaN,NaN,NaN,NaN,NaN,NaN,NaN,NaN,NaN,NaN,NaN,NaN,NaN,NaN,NaN,NaN,NaN,NaN,NaN,NaN,NaN,NaN,NaN,NaN,NaN,NaN,NaN,NaN,NaN,NaN,NaN,NaN,NaN,,NaN,NaN,NaN,NaN,NaN,NaN,NaN,NaN,NaN,NaN,NaN,,,NaN,NaN,NaN,NaN,NaN,NaN,NaN,NaN,NaN,NaN,NaN,,,NaN,NaN,NaN,NaN,NaN,,NaN,NaN,NaN,,,NaN,,,NaN,NaN,NaN,,NaN,NaN,NaN,NaN,NaN,NaN,NaN,4,26,여자,yes,yes,yes,yes,no,2022-11-22_12h26.45.095,Main,2022.2.4,59.5453238164227
NaN,,NaN,,,NaN,NaN,,,,NaN,,,negative,neutral,1,j,l,NaN,NaN,NaN,NaN,NaN,NaN,NaN,NaN,NaN,NaN,NaN,NaN,1,0,1,0,0,0,0,0,NaN,NaN,NaN,NaN,NaN,NaN,NaN,NaN,NaN,NaN,NaN,NaN,NaN,NaN,NaN,NaN,NaN,NaN,NaN,NaN,NaN,NaN,NaN,NaN,0,0,0,3,NaN,NaN,NaN,NaN,NaN,NaN,NaN,NaN,NaN,NaN,NaN,NaN,NaN,,NaN,NaN,NaN,NaN,NaN,NaN,NaN,NaN,NaN,NaN,NaN,,,NaN,NaN,NaN,NaN,NaN,NaN,NaN,NaN,NaN,NaN,NaN,,,NaN,NaN,NaN,NaN,NaN,prac,2,2,1,neutral,negative,703.7250387,j,j,1,2.75884079999992,2.75816540000005,,NaN,NaN,NaN,NaN,NaN,NaN,NaN,4,26,여자,yes,yes,yes,yes,no,2022-11-22_12h26.45.095,Main,2022.2.4,59.5453238164227
NaN,,NaN,,,NaN,NaN,,,,NaN,,,negative,negative,2,j,l,NaN,NaN,NaN,NaN,NaN,NaN,NaN,NaN,NaN,NaN,NaN,NaN,1,0,1,0,0,0,0,0,NaN,NaN,NaN,NaN,NaN,NaN,NaN,NaN,NaN,NaN,NaN,NaN,NaN,NaN,NaN,NaN,NaN,NaN,NaN,NaN,NaN,NaN,NaN,NaN,0,1,1,9,NaN,NaN,NaN,NaN,NaN,NaN,NaN,NaN,NaN,NaN,NaN,NaN,NaN,,NaN,NaN,NaN,NaN,NaN,NaN,NaN,NaN,NaN,NaN,NaN,,,NaN,NaN,NaN,NaN,NaN,NaN,NaN,NaN,NaN,NaN,NaN,,,NaN,NaN,NaN,NaN,NaN,prac,2,2,2,negative,negative,708.4820594,j,j,1,1.43584799999985,1.43513619999999,,NaN,NaN,NaN,NaN,NaN,NaN,NaN,4,26,여자,yes,yes,yes,yes,no,2022-11-22_12h26.45.095,Main,2022.2.4,59.5453238164227
NaN,,NaN,,,NaN,NaN,,,,NaN,,,neutral,neutral,1,k,k,NaN,NaN,NaN,NaN,NaN,NaN,NaN,NaN,NaN,NaN,NaN,NaN,1,0,1,0,0,0,0,0,NaN,NaN,NaN,NaN,NaN,NaN,NaN,NaN,NaN,NaN,NaN,NaN,NaN,NaN,NaN,NaN,NaN,NaN,NaN,NaN,NaN,NaN,NaN,NaN,0,2,2,1,NaN,NaN,NaN,NaN,NaN,NaN,NaN,NaN,NaN,NaN,NaN,NaN,NaN,,NaN,NaN,NaN,NaN,NaN,NaN,NaN,NaN,NaN,NaN,NaN,,,NaN,NaN,NaN,NaN,NaN,NaN,NaN,NaN,NaN,NaN,NaN,,,NaN,NaN,NaN,NaN,NaN,prac,1,1,1,neutral,neutral,710.9139848,k,k,1,1.1600870000002,1.15933220000011,,NaN,NaN,NaN,NaN,NaN,NaN,NaN,4,26,여자,yes,yes,yes,yes,no,2022-11-22_12h26.45.095,Main,2022.2.4,59.5453238164227
NaN,,NaN,,,NaN,NaN,,,,NaN,,,neutral,positive,1,k,k,NaN,NaN,NaN,NaN,NaN,NaN,NaN,NaN,NaN,NaN,NaN,NaN,1,0,1,0,0,0,0,0,NaN,NaN,NaN,NaN,NaN,NaN,NaN,NaN,NaN,NaN,NaN,NaN,NaN,NaN,NaN,NaN,NaN,NaN,NaN,NaN,NaN,NaN,NaN,NaN,0,3,3,4,NaN,NaN,NaN,NaN,NaN,NaN,NaN,NaN,NaN,NaN,NaN,NaN,NaN,,NaN,NaN,NaN,NaN,NaN,NaN,NaN,NaN,NaN,NaN,NaN,,,NaN,NaN,NaN,NaN,NaN,NaN,NaN,NaN,NaN,NaN,NaN,,,NaN,NaN,NaN,NaN,NaN,prac,2,2,1,positive,neutral,713.0795685,k,k,1,0.845672399999785,0.844859899999847,,NaN,NaN,NaN,NaN,NaN,NaN,NaN,4,26,여자,yes,yes,yes,yes,no,2022-11-22_12h26.45.095,Main,2022.2.4,59.5453238164227
NaN,,NaN,,,NaN,NaN,,,,NaN,,,positive,positive,2,l,j,NaN,NaN,NaN,NaN,NaN,NaN,NaN,NaN,NaN,NaN,NaN,NaN,1,0,1,0,0,0,0,0,NaN,NaN,NaN,NaN,NaN,NaN,NaN,NaN,NaN,NaN,NaN,NaN,NaN,NaN,NaN,NaN,NaN,NaN,NaN,NaN,NaN,NaN,NaN,NaN,0,4,4,11,NaN,NaN,NaN,NaN,NaN,NaN,NaN,NaN,NaN,NaN,NaN,NaN,NaN,,NaN,NaN,NaN,NaN,NaN,NaN,NaN,NaN,NaN,NaN,NaN,,,NaN,NaN,NaN,NaN,NaN,NaN,NaN,NaN,NaN,NaN,NaN,,,NaN,NaN,NaN,NaN,NaN,prac,2,2,2,positive,positive,714.9333678,l,l,1,0.944488600000113,0.943788700000141,,NaN,NaN,NaN,NaN,NaN,NaN,NaN,4,26,여자,yes,yes,yes,yes,no,2022-11-22_12h26.45.095,Main,2022.2.4,59.5453238164227
NaN,,NaN,,,NaN,NaN,,,,NaN,,,positive,negative,1,l,j,NaN,NaN,NaN,NaN,NaN,NaN,NaN,NaN,NaN,NaN,NaN,NaN,1,0,1,0,0,0,0,0,NaN,NaN,NaN,NaN,NaN,NaN,NaN,NaN,NaN,NaN,NaN,NaN,NaN,NaN,NaN,NaN,NaN,NaN,NaN,NaN,NaN,NaN,NaN,NaN,0,5,5,5,NaN,NaN,NaN,NaN,NaN,NaN,NaN,NaN,NaN,NaN,NaN,NaN,NaN,,NaN,NaN,NaN,NaN,NaN,NaN,NaN,NaN,NaN,NaN,NaN,,,NaN,NaN,NaN,NaN,NaN,NaN,NaN,NaN,NaN,NaN,NaN,,,NaN,NaN,NaN,NaN,NaN,prac,1,1,1,negative,positive,716.8712671,l,j,0,1.02081410000005,1.01990849999993,,NaN,NaN,NaN,NaN,NaN,NaN,NaN,4,26,여자,yes,yes,yes,yes,no,2022-11-22_12h26.45.095,Main,2022.2.4,59.5453238164227
NaN,,NaN,,,NaN,NaN,,,,NaN,,,positive,neutral,1,l,j,NaN,NaN,NaN,NaN,NaN,NaN,NaN,NaN,NaN,NaN,NaN,NaN,1,0,1,0,0,0,0,0,NaN,NaN,NaN,NaN,NaN,NaN,NaN,NaN,NaN,NaN,NaN,NaN,NaN,NaN,NaN,NaN,NaN,NaN,NaN,NaN,NaN,NaN,NaN,NaN,0,6,6,8,NaN,NaN,NaN,NaN,NaN,NaN,NaN,NaN,NaN,NaN,NaN,NaN,NaN,,NaN,NaN,NaN,NaN,NaN,NaN,NaN,NaN,NaN,NaN,NaN,,,NaN,NaN,NaN,NaN,NaN,NaN,NaN,NaN,NaN,NaN,NaN,,,NaN,NaN,NaN,NaN,NaN,prac,2,2,1,neutral,positive,719.8876978,l,l,1,1.39507819999994,1.39435479999997,,NaN,NaN,NaN,NaN,NaN,NaN,NaN,4,26,여자,yes,yes,yes,yes,no,2022-11-22_12h26.45.095,Main,2022.2.4,59.5453238164227
NaN,,NaN,,,NaN,NaN,,,,NaN,,,neutral,neutral,2,k,k,NaN,NaN,NaN,NaN,NaN,NaN,NaN,NaN,NaN,NaN,NaN,NaN,1,0,1,0,0,0,0,0,NaN,NaN,NaN,NaN,NaN,NaN,NaN,NaN,NaN,NaN,NaN,NaN,NaN,NaN,NaN,NaN,NaN,NaN,NaN,NaN,NaN,NaN,NaN,NaN,0,7,7,10,NaN,NaN,NaN,NaN,NaN,NaN,NaN,NaN,NaN,NaN,NaN,NaN,NaN,,NaN,NaN,NaN,NaN,NaN,NaN,NaN,NaN,NaN,NaN,NaN,,,NaN,NaN,NaN,NaN,NaN,NaN,NaN,NaN,NaN,NaN,NaN,,,NaN,NaN,NaN,NaN,NaN,prac,2,2,2,neutral,neutral,722.2887865,k,k,1,1.00726120000013,1.00650910000013,,NaN,NaN,NaN,NaN,NaN,NaN,NaN,4,26,여자,yes,yes,yes,yes,no,2022-11-22_12h26.45.095,Main,2022.2.4,59.5453238164227
NaN,,NaN,,,NaN,NaN,,,,NaN,,,neutral,negative,1,k,k,NaN,NaN,NaN,NaN,NaN,NaN,NaN,NaN,NaN,NaN,NaN,NaN,1,0,1,0,0,0,0,0,NaN,NaN,NaN,NaN,NaN,NaN,NaN,NaN,NaN,NaN,NaN,NaN,NaN,NaN,NaN,NaN,NaN,NaN,NaN,NaN,NaN,NaN,NaN,NaN,0,8,8,7,NaN,NaN,NaN,NaN,NaN,NaN,NaN,NaN,NaN,NaN,NaN,NaN,NaN,,NaN,NaN,NaN,NaN,NaN,NaN,NaN,NaN,NaN,NaN,NaN,,,NaN,NaN,NaN,NaN,NaN,NaN,NaN,NaN,NaN,NaN,NaN,,,NaN,NaN,NaN,NaN,NaN,prac,1,1,1,negative,neutral,724.2958103,k,k,1,0.901090100000147,0.900416000000178,,NaN,NaN,NaN,NaN,NaN,NaN,NaN,4,26,여자,yes,yes,yes,yes,no,2022-11-22_12h26.45.095,Main,2022.2.4,59.5453238164227
NaN,,NaN,,,NaN,NaN,,,,NaN,,,positive,negative,2,l,j,NaN,NaN,NaN,NaN,NaN,NaN,NaN,NaN,NaN,NaN,NaN,NaN,1,0,1,0,0,0,0,0,NaN,NaN,NaN,NaN,NaN,NaN,NaN,NaN,NaN,NaN,NaN,NaN,NaN,NaN,NaN,NaN,NaN,NaN,NaN,NaN,NaN,NaN,NaN,NaN,0,9,9,14,NaN,NaN,NaN,NaN,NaN,NaN,NaN,NaN,NaN,NaN,NaN,NaN,NaN,,NaN,NaN,NaN,NaN,NaN,NaN,NaN,NaN,NaN,NaN,NaN,,,NaN,NaN,NaN,NaN,NaN,NaN,NaN,NaN,NaN,NaN,NaN,,,NaN,NaN,NaN,NaN,NaN,prac,2,2,2,negative,positive,726.196393,l,l,1,1.06555830000002,1.06489149999993,,NaN,NaN,NaN,NaN,NaN,NaN,NaN,4,26,여자,yes,yes,yes,yes,no,2022-11-22_12h26.45.095,Main,2022.2.4,59.5453238164227
